wall_unix,perf_timestamp,mock,accel_x,accel_y,accel_z,gyro_x,gyro_y,gyro_z,angle_pitch,angle_roll,angle_yaw
1778536219.0202878,1945919.2730176,True,0.011101258069102692,0.18190736749376682,0.9833917671153658,0.4055392019105096,5.199411804214014,6.80538610668275,0.20958864711496436,-0.012719630474032207,0.0
1778536219.0685925,1945919.3213222,True,-0.00701317041168514,0.1749710076498319,0.9830113848279166,1.4168127372280654,7.7598017820364715,7.4745431151622865,0.4743147696350176,0.3629209490851894,0.36105481493192443
1778536219.1151478,1945919.3678793,True,0.03544180663956369,0.20416018206808662,0.991524606027455,0.29239103298993296,6.1977894516203555,8.418828279438026,0.7107225431786584,0.5983401471699719,0.7530110452232261
1778536219.1622655,1945919.4150063,True,0.009197342776087431,0.19407107936745674,0.9954951786851127,0.6631561681111087,6.67382318348592,8.07410610240613,0.9477546172123275,0.8842091012652928,1.1335194439651426
1778536219.206624,1945919.4593652,True,0.05350572517865783,0.21296191753024712,1.0016970490807058,3.4718705973874604,8.500295604515234,7.046988198883517,1.3194447443703563,1.176230736591174,1.4461160891308413
1778536219.252908,1945919.5056494,True,0.05673320481272971,0.21814547120815914,0.9934550165214773,2.8974698960345506,6.404719906946973,7.817597413439755,1.6717824311074716,1.3793638960684234,1.8079473307487408
1778536219.2996585,1945919.5523997,True,0.05563075834976887,0.20325467626789204,1.0028708083893358,3.0470139391641395,7.6948721654353776,7.92824882534266,2.0067463478278924,1.642081681229942,2.1785953425867954
1778536219.3449297,1945919.5976673,True,0.05555798031670192,0.22537461638164685,1.0061958497174668,4.090324934288696,9.198482062059085,7.097024818217604,2.400198041918891,1.9556221759883725,2.4998606223086997
1778536219.391596,1945919.6443189,True,0.06854862903862183,0.2528114157804436,1.0247403035327984,5.512325487766265,7.9045162709121355,7.0465235492212575,2.8807868459146144,2.2035742045293905,2.828592221456038
1778536219.438822,1945919.6915525,True,0.09768210661036175,0.2570065031327766,1.0220046122905222,4.7199037573985105,7.802898330140017,8.27353079868362,3.322733413156781,2.4147748524975645,3.2193808652641125
1778536219.4863784,1945919.7391159,True,0.0915832866913611,0.23940878929081416,1.0026173608515336,5.59724405313174,7.89068147642892,8.37865023308333,3.7847012849584605,2.632736982126606,3.6178979568111513
1778536219.5339782,1945919.7867044,True,0.10998012414866819,0.24610663747738565,1.0054109568935692,6.358871126372522,10.953476660864943,8.35974349761566,4.279084911842089,2.969616615800041,4.015725611871328
1778536219.5803347,1945919.8330755,True,0.12714027306544173,0.25598877566274714,1.0129389532121276,6.385419121587787,10.134113531239487,7.615507814279114,4.765215227114764,3.2319910593605834,4.368865086314314
1778536219.6274507,1945919.8801872,True,0.12789017937085634,0.25164042304185613,1.0368930313872005,5.575992898069105,11.516082254935624,7.379302682594672,5.198199784707942,3.5623446297486843,4.716516579201914
1778536219.6734188,1945919.9261509,True,0.12387406054230646,0.24991286801143797,1.0238812911240927,6.301251005880189,9.221605205035287,8.157835926510758,5.650495675415097,3.772410396981911,5.09148090370086
1778536219.7208467,1945919.9735746,True,0.11745977695569168,0.23207295421425161,1.0023227651717141,8.307868694610924,11.465984753629,8.15876449198965,6.182609240171302,4.099584268304134,5.478399702284746
1778536219.7663403,1945920.0190709,True,0.12183459037555114,0.23378272974486242,1.036846731465386,6.788066810967666,10.8042982658547,7.602555907867214,6.6140571146680065,4.368534688848358,5.824287867363352
1778536219.8131404,1945920.0658776,True,0.10465725270821838,0.22635183697460343,1.0189004061156277,8.494711766159256,10.518944158651264,8.498090361757255,7.120663796865834,4.6491541613881795,6.222055434025954
1778536219.8597693,1945920.112506,True,0.1609838384377142,0.26560506129822464,1.0326875542618168,9.270467574285712,12.368869306747113,8.049026429835575,7.687045526413089,4.94966940821845,6.597368657885448
1778536219.9067147,1945920.1594517,True,0.15409562849427133,0.27108130183251844,1.0095794541078085,10.360561850289454,10.484285671745843,7.241950843850655,8.307271039419282,5.1653104974455815,6.937347109298903
1778536219.9527025,1945920.2054346,True,0.14676225931297956,0.2603396014230117,1.0104023585354673,8.51079446292562,12.232352674470533,7.958610723806133,8.810742958402464,5.453102857260256,7.303307109099386
1778536219.9994087,1945920.2521428,True,0.14089939825578274,0.24272229948682544,1.0125485289092029,8.612378583312676,10.577228177080368,8.797194678718029,9.295876112061672,5.674074600658091,7.714208238708127
1778536220.0456264,1945920.2983632,True,0.1784826230252719,0.24437863811913377,1.0438051019022723,10.463553943547527,10.577196771296187,8.699200295240441,9.843812570614569,5.850648037166541,8.116288755207801
1778536220.092741,1945920.3454716,True,0.1543815175222735,0.22941893297638333,1.043657181056431,9.964513058994612,12.586614568581027,8.034145813135233,10.352326469195049,6.150294120751583,8.4947645110156
1778536220.1392875,1945920.3920245,True,0.18618909147524687,0.23618963425057782,1.0466892711595994,11.715125189075374,11.33153417270392,8.4374603773558,10.930260747498803,6.347373807505467,8.887552760149894
1778536220.186615,1945920.4393546,True,0.16269475332327665,0.20349409722134504,1.0289946183423655,10.594529879306378,12.550475789445773,8.29084332179135,11.424119346613342,6.626227511756085,9.279959202464717
1778536220.234029,1945920.4867657,True,0.2043417327313961,0.19825478692028484,1.0288752497049085,11.644874560096136,11.65976055386831,7.228915621032865,11.95074375540061,6.814743401615499,9.622690043919961
1778536220.280844,1945920.533581,True,0.16413157827216532,0.22049199615085222,1.0349988661895257,12.86512961505521,10.542090769713708,8.668617292098919,12.53961004076967,6.985781501375045,10.028513964139934
1778536220.327585,1945920.5803213,True,0.2068352495423823,0.169885733872585,1.054267768366375,11.305292504279267,12.431281052593953,8.594911159437379,12.986374063727688,7.196249247351638,10.430242690395037
1778536220.374448,1945920.6271843,True,0.20565713325025292,0.20944255348486646,1.0546874087657787,13.285117533727522,12.294703920831664,8.386732196416325,13.557362076924973,7.400416440335019,10.823270120549367
1778536220.420492,1945920.6732286,True,0.17314019898405156,0.19174402915786595,1.0222341734417983,14.040407830347995,12.419716565998202,8.001074465160102,14.129323305263792,7.623799762969815,11.191673994165486
1778536220.4661074,1945920.7188446,True,0.20830879374897276,0.1539712109146063,1.0428060702239628,12.33118201576773,11.87213787458776,8.237244097277491,14.562758456614143,7.778481946152989,11.56742412057254
1778536220.5123532,1945920.7650948,True,0.2181273410725087,0.12876741173545525,1.028251424940661,13.867003117568455,12.098919151521333,8.339464993363253,15.03971056017405,7.93356469111742,11.953126043566948
1778536220.547413,1945920.8001542,True,0.17448093805408882,0.16316450116862694,1.0384849616963299,12.278625259982652,10.976697444729592,8.63844048169372,15.336942260352831,7.96355377729528,12.255984584962656
1778536220.5934942,1945920.8462343,True,0.19240776832885143,0.15763374034861086,1.0459877820614851,13.550919603177428,12.988483413555358,8.004550938743803,15.810758603858725,8.184641583122424,12.624835091749903
1778536220.6412854,1945920.8940221,True,0.19825036919426342,0.1474641311396161,1.037394705128849,13.656212372558757,10.549572420534226,7.005549357840746,16.293058949211602,8.300730025240496,12.959614883111465
1778536220.6882467,1945920.9409875,True,0.19540333112392433,0.10335213387358066,1.0512501797503009,14.927395024541925,10.372033659993182,6.682795313717346,16.764666253998605,8.402491575811887,13.27347503807055
1778536220.7348356,1945920.987575,True,0.1940568753713102,0.10919690891496062,1.0561101690499695,13.553940138245288,12.386916182846441,7.832086972771818,17.164320489174738,8.592820440896306,13.638352390092535
1778536220.7809706,1945921.0337063,True,0.22525561060246474,0.11486195888390388,1.0599176489714999,15.240394862804365,11.4452971876985,7.343483099111177,17.6310488581814,8.699785455477029,13.977116812286965
1778536220.8282726,1945921.0810062,True,0.20707635519491918,0.06618484759204164,1.0293414849102895,14.466961629193134,11.288979973321084,7.181791039338996,18.021165745662906,8.82204313289999,14.316814810930646
1778536220.8748047,1945921.1275464,True,0.20986181194407613,0.08016887822090564,1.0509906891826983,14.826429231747193,11.992322170317475,8.368571123812131,18.422525093141683,8.967356266556733,14.706289784845875
1778536220.9219167,1945921.1746557,True,0.223407746111073,0.02986180990731807,1.0380998482012342,13.535889082472494,9.6137452547279,7.061346393119042,18.711204447036767,8.989039684875078,15.038944870750482
1778536220.9687877,1945921.221527,True,0.1991194662555601,0.031510437031669974,1.0623949195077724,15.333755225993434,10.453161023523784,7.052985877644723,19.07471564171944,9.077194092732894,15.369527486697548
1778536221.0157683,1945921.2685074,True,0.22188634295718943,0.026652537694442494,1.0277184227029734,14.438924076922191,9.773378799736493,7.37341452195634,19.38704312067655,9.102038524836209,15.715933451072258
1778536221.0619004,1945921.3146354,True,0.2133239202927388,0.0013263549182481842,1.059438205448902,15.263992858508882,11.243072030111772,7.154653808378053,19.69072416175226,9.200553919929028,16.045963321229003
1778536221.1090186,1945921.3617563,True,0.1652996320554897,0.027386992061841912,1.067479176887964,14.143982964029226,10.928399956720845,7.161301659199326,19.97910419477839,9.345209461204423,16.38341030148554
1778536221.1553304,1945921.4080705,True,0.19054395860158013,-0.021923987317119968,1.062295802265053,14.951815316962321,10.00764912724176,6.797034922187255,20.234878798237887,9.409193919820455,16.69820953574
1778536221.202972,1945921.4557037,True,0.19004497304977735,-0.04582904709090148,1.0499916499179067,15.892542697472864,10.548456354700173,7.848715608366653,20.52286767615461,9.508423146845978,17.07206897568397
1778536221.249883,1945921.5026182,True,0.18880591013421455,-0.046861658409200174,1.0682252873442164,15.469144275542824,10.114025054064083,6.856868351669188,20.774151149025883,9.582980873484786,17.393755525635978
1778536221.2973168,1945921.5500535,True,0.18095474212978097,-0.02670191025078074,1.0576620238440284,15.648191509625233,7.25362105008549,6.496299685572192,21.057589502595622,9.534404104433213,17.70190945135741
1778536221.3443186,1945921.5970572,True,0.20056774911477565,-0.029713967631661828,1.0509075199689062,15.760516854949083,7.64419788342551,7.669400916558681,21.330606599510727,9.479818351014371,18.062399670699435
1778536221.3916693,1945921.6444084,True,0.14827687167360742,-0.0690866263880782,1.0522612436766008,15.415172055411412,8.429052470099858,6.908799298487908,21.54492799000706,9.521287640737219,18.38953960735617
1778536221.439048,1945921.6917763,True,0.1761126976226216,-0.08033358790126333,1.0625134891263366,16.300310656917198,8.929763872829144,6.886915150912923,21.78538345730088,9.557687117699222,18.71575831652694
1778536221.487232,1945921.7399729,True,0.1674404301106906,-0.09568371258544695,1.0415196104416267,14.6924671229692,8.13299857651002,5.6654222276921775,21.939983979158416,9.568768997788146,18.988812404439365
1778536221.5336673,1945921.7864042,True,0.12224204728601934,-0.07814914875551732,1.0679798072533178,13.721445360377443,5.589761928296079,5.962046895924107,22.04238492820218,9.50149366033516,19.265637992463144
1778536221.5805607,1945921.8332966,True,0.1649366877914643,-0.12440620171404168,1.030243572023649,15.608224178890959,7.007858446066974,5.941258081976226,22.18281406435931,9.452885520558251,19.544237843733576
1778536221.6265593,1945921.879301,True,0.13627178338211365,-0.13095281499537342,1.057708330754263,15.53042583535104,7.086344882283593,7.102889532548113,22.299326665158627,9.437584034591827,19.871002014163984
1778536221.672679,1945921.9254136,True,0.12171846118242369,-0.13013157307559545,1.060908271249993,13.736954066699527,6.6576443961926355,6.965444513958272,22.335160450993016,9.419759973708777,20.192196770966138
1778536221.7193272,1945921.9720683,True,0.13767642348344578,-0.1335015742520658,1.0506781637575986,12.848255703828718,4.925985781820787,6.840571249675475,22.332288250508803,9.308461066646007,20.51134157091871
1778536221.7661972,1945922.0189336,True,0.14728804640619536,-0.15415662366889749,1.0573840355976707,13.07257640533884,3.8045390443885685,6.316628775451347,22.321709398779372,9.140065505070957,20.807372273737673
1778536221.8124118,1945922.0651468,True,0.12014905137391897,-0.1741122770593591,1.0614098250397273,13.734549136732468,4.578782632251844,5.327097402387272,22.312144981431896,9.03715672373324,21.05355449061553
1778536221.8587885,1945922.1115225,True,0.12432811297637941,-0.18221762915035908,1.0510757872398864,13.606912763495854,4.656287285235287,5.661684405397357,22.2889428393076,8.935078954894294,21.316119068320187
1778536221.9056885,1945922.1584025,True,0.10662864415750412,-0.19436473545016628,1.0406024170384804,14.445595984955329,3.477275396768374,6.5805038802111415,22.296309776744586,8.801095995380726,21.624613090475023
1778536221.9522262,1945922.2049622,True,0.09338664780752266,-0.18649813544560495,1.0648180444381545,13.79227861762072,2.0133040401445177,4.714440809673388,22.281762600852222,8.618191092817964,21.844116040448004
1778536221.9990895,1945922.2518293,True,0.0965105164427795,-0.1882878932814796,1.0613069332891283,12.097193656175078,3.3298370975560934,4.509339739481062,22.191353623933566,8.496436489922907,22.055455717205934
1778536222.0456982,1945922.298433,True,0.08801236323594529,-0.18620672099889848,1.0455809630495434,13.905183089767707,3.445076780755263,4.908058064337295,22.181338091805966,8.38910260734573,22.28418938239311
1778536222.0926957,1945922.3454352,True,0.05794193309826144,-0.24541874143218406,1.0444915928315661,12.770431019375206,2.979332534245993,4.59016903326184,22.061883874669643,8.2967320632554,22.49993742549923
1778536222.1394827,1945922.3922219,True,0.06324230619021996,-0.24531887351157364,1.0465282662376267,13.6242368868418,2.483183273392032,5.491280668140126,21.981941821537983,8.177310650682191,22.756856326239532
1778536222.1863654,1945922.439102,True,0.043011308799950784,-0.21661544676711766,1.0272083377090435,10.514164555900711,0.03051584918445882,5.586439619967299,21.787393705647595,7.968243381795973,23.01874917513485
1778536222.2333043,1945922.4860457,True,0.04985824025290989,-0.24982992778483548,1.054386287957507,12.344256377289879,-0.716414531615942,4.67366991094981,21.653227564950143,7.72323068959005,23.23814853305794
1778536222.2794461,1945922.5321699,True,0.00935405130174299,-0.2635676286793685,1.0626406591432782,12.675542649123852,0.18759324637303693,5.476511958228311,21.514529560066915,7.567455415320764,23.490748265215043
1778536222.3257384,1945922.5784763,True,0.006601653266782314,-0.24913248744252775,1.0574952240907887,11.012686982615119,-1.0329217336077692,5.420696411221838,21.318873924859922,7.362269105384804,23.741761202022175
1778536222.3725615,1945922.6253025,True,0.04625822933147279,-0.2720314792822666,1.0279042164887076,10.60555307477843,-1.0461337516775706,5.19081681800241,21.083002170228955,7.117195617070876,23.98482742899364
1778536222.4116905,1945922.6644267,True,0.03023111866331865,-0.2666162577153553,1.0319449622247765,10.203054834199438,-0.5342194276159895,3.8304911059585454,20.762937380263683,6.921874882132008,24.13469232869136
1778536222.4581227,1945922.7108584,True,-0.022678371980173126,-0.2588271819602234,1.0315131928511474,8.808901189643331,-0.8115777306653364,3.5746037736573717,20.46685922839502,6.770940461413352,24.300667258730616
1778536222.505647,1945922.7583781,True,0.01944249816126634,-0.26331880128569773,1.0303476198062196,9.838474879837053,-0.9194863556672503,3.2445555750177872,20.229025129878167,6.571754222042782,24.454847566730166
1778536222.553497,1945922.8062346,True,-0.0030555139902883784,-0.22849118016074446,1.0420711024931386,8.336901237790274,-2.303216925423614,4.735805499205156,19.96809465950406,6.3355817379810375,24.681486642160692
1778536222.599443,1945922.852176,True,-0.004256611627143463,-0.2578889622005505,1.0388962690616452,8.927654824144874,-3.415782136878447,3.6165945236675516,19.69186199393768,6.059639582121685,24.84763805736196
1778536222.6465142,1945922.899254,True,-0.03708245214293433,-0.24478222919454418,1.058094523060631,8.875608359238981,-2.1610691801313195,3.0644110175121875,19.44715216674439,5.877854448448932,24.991904399700253
1778536222.6932638,1945922.946004,True,-0.03692861979339075,-0.25369655342532843,1.0577622887352616,9.32555295720218,-4.835553482966703,2.7418101162152486,19.215873361609315,5.577644479369943,25.12008402257714
1778536222.7404716,1945922.9932132,True,-0.07358499717335538,-0.2165390579715173,1.0534907613252045,8.93852092685447,-3.4319052302143986,2.975768222030752,19.013344969243395,5.385594158024285,25.26056765967591
1778536222.7873206,1945923.040059,True,-0.07301389714051634,-0.22330602750298154,1.052859490383405,7.013115721222346,-5.053430256059788,2.805278054153228,18.716106003083876,5.123503919041055,25.391983154374582
1778536222.8338478,1945923.0865871,True,-0.07648705569459367,-0.21824027388036732,1.0477497127228101,8.151016968422311,-4.246123379746153,3.767285264361984,18.47873449939588,4.909177635105088,25.567267780019286
1778536222.8715763,1945923.1243017,True,-0.0779555335749802,-0.26096593147132685,1.0321325898587503,7.367473109857622,-4.344129080025661,2.242391045722615,18.098450082598,4.734193103366868,25.65183866104858
1778536222.9186597,1945923.171397,True,-0.07857531467063111,-0.25043364502260557,1.0467978399685738,6.567807753912391,-4.587849134556597,2.046194697223888,17.771246542591587,4.511270973526182,25.748204814508473
1778536222.9662817,1945923.2190183,True,-0.0926214654388487,-0.20803424752074945,1.033570618190214,5.70362348123909,-5.257899397597967,3.611556496625436,17.455282530303574,4.27607760888454,25.920191829823015
1778536223.0131679,1945923.2659017,True,-0.09008829497217924,-0.2296574217592123,1.0259776309133672,4.9120585082366786,-7.865870412007974,2.783867395323326,17.080456522661027,3.927103486641967,26.050708997994807
1778536223.0609853,1945923.3137253,True,-0.07242885597662878,-0.18792281348713666,1.0168696386760079,5.72802910905831,-7.994991759695354,2.201386501591873,16.79841265579899,3.553989623956641,26.15598722550413
1778536223.1086104,1945923.3613456,True,-0.08222430052270085,-0.1946598343411564,1.0452836962017602,2.9342159224329585,-7.631340134618557,2.223829059446476,16.389029955069034,3.215211925950654,26.261886632916376
1778536223.1556547,1945923.4083892,True,-0.12844116239020742,-0.1903708403988837,1.0160353444812813,2.5890238673037445,-6.799201795242607,1.9593287880961578,15.970003467007581,2.9791020925667566,26.354060512470298
1778536223.2027442,1945923.4554797,True,-0.11340453751389111,-0.18234189473068924,1.0396479790043707,3.5154351712286758,-6.4659472190542235,1.2478383640402664,15.61502965593138,2.7437715111550034,26.41282184482073
1778536223.2493243,1945923.5020624,True,-0.15355992993121675,-0.16523230156048277,1.0398832933953397,1.3027085952579316,-6.860060393367288,2.4138600687393996,15.183534106355447,2.5416783784059973,26.525265964773446
1778536223.2962353,1945923.5489758,True,-0.15629314239253062,-0.1973768546788333,1.0343873383869295,2.7245054099725916,-8.398987233463123,2.073597131412205,14.791430880281176,2.273543852932447,26.622545456078957
1778536223.3426037,1945923.5953394,True,-0.12523289216394629,-0.1555375766871729,1.0225308688769201,1.3011427673517297,-9.35857769073759,1.2539830773228213,14.383005435950505,1.940929706243787,26.680684625963064
1778536223.3888903,1945923.641624,True,-0.12628874109659663,-0.15361911976031062,1.0354798834325254,1.0956282450209343,-10.376748123983887,1.795610473453332,13.977493663575267,1.5690128572077962,26.763793738353712
1778536223.435872,1945923.6886115,True,-0.15472660312290915,-0.11435236154222245,1.0205925229358264,1.8572686840018846,-10.803999815821317,1.4757821835694203,13.65703868380291,1.2114897682247059,26.833137053765753
1778536223.4830244,1945923.7357607,True,-0.14390819047714914,-0.12495243086780468,1.0189430400914712,1.5123533395790294,-10.071472256666397,1.5335122558254528,13.315313737228484,0.8814929009869763,26.905440929806492
1778536223.529581,1945923.7823209,True,-0.13795288691795882,-0.09113397088002241,1.0288564336878965,-0.36503299048041615,-11.208052359341133,0.5350520151946763,12.932006130232395,0.5045997989446058,26.930353058607583
1778536223.5753274,1945923.8280668,True,-0.17469445096903738,-0.08986054007273407,0.9998434143853857,0.38208050295565876,-11.26362014282386,0.40502774777823425,12.589307061656198,0.18698419976658523,26.948881417508794
1778536223.6216514,1945923.8743859,True,-0.18394297548999863,-0.10024294339748603,1.0016198136997732,-1.7529748737300614,-11.076412110882696,1.4111300034578034,12.145512971725566,-0.11243280758123136,27.014243689357045
1778536223.6677473,1945923.9204822,True,-0.14746491070171075,-0.06863992286783782,1.0013026180147417,-3.128052930978809,-11.100826239166818,1.3768470675037168,11.683698739585056,-0.4444857635581695,27.07771124484552
1778536223.7139578,1945923.9666921,True,-0.16098185174070107,-0.09663371572765377,1.0245686257356024,-1.623558282061111,-10.744423160401595,0.664028742181874,11.270039293882254,-0.7443532049898132,27.108395946579996
1778536223.7594903,1945924.0122018,True,-0.16506901111297465,-0.07111315397687204,1.0227861561342426,-2.590674474656885,-11.894837617491408,0.9620443328235979,10.850562491398755,-1.077044192770161,27.152178295519725
1778536223.8074346,1945924.0601727,True,-0.1867617289419046,-0.07168030557896492,1.014407103216192,-2.5437022167239096,-10.251037560824587,0.9011922477973997,10.43446127231998,-1.3292901053616402,27.195409298790995
1778536223.8535511,1945924.1062908,True,-0.17905354573769386,-0.026149933304604814,0.9992260196609625,-3.72886459359164,-11.570152254459316,-0.1394916244694183,10.027731134866166,-1.6225111975847695,27.18897621011279
1778536223.8998973,1945924.1526325,True,-0.19426602339050839,-0.0031056869980017714,1.0068329524978445,-4.691779786582038,-12.440277249006572,-0.7437657128590806,9.61062928411835,-1.936617902390401,27.15450884256698
1778536223.9474921,1945924.2002282,True,-0.18800894639099916,-0.008804487929483745,1.0086727113949994,-4.742430508573501,-12.14556130082559,0.5254675164840934,9.187378927379566,-2.2532415999001847,27.179518836849837
1778536223.995002,1945924.2477368,True,-0.19473341036394404,-0.013844686985296138,1.0015760889526386,-5.220734728683365,-10.63655626004077,0.04917125216996865,8.745014382813471,-2.4833670840015345,27.18185489419749
1778536224.041917,1945924.2946583,True,-0.19716733415090992,-0.005018735271227518,1.0179208206095551,-4.186313595299524,-13.030494537696997,0.2651957658964178,8.372067882499797,-2.8136400374654773,27.19429827732828
1778536224.0887256,1945924.3414619,True,-0.2035403106108323,0.048001704513992625,1.0082382238453862,-6.747328254681035,-11.321489051640382,-1.7013982961669116,7.948582096651319,-3.0486411678995458,27.114666712166535
1778536224.1359773,1945924.3887085,True,-0.21601884005475425,0.04000582745659662,0.9950847799633395,-5.144090241897516,-12.826144717058694,-1.2673485437672152,7.596428470777197,-3.3367707651316616,27.054788802413494
1778536224.1830661,1945924.4358032,True,-0.18062858187460124,0.036862225874275,1.0108955418659942,-7.967510410303258,-12.73930514971727,-0.25680857301658166,7.117893516191806,-3.6555058771428315,27.04269447972868
1778536224.230306,1945924.4830352,True,-0.1922425704866178,0.0745280722467708,0.9958440039460501,-7.293402568587437,-10.871980135815388,-0.9044306053773363,6.721996872618534,-3.8677007803581795,26.999976413233288
1778536224.278165,1945924.530888,True,-0.17566159604896417,0.09082584540764121,0.9918132311673757,-8.204394247898488,-11.94727572893105,-1.3069775974140516,6.305856781008584,-4.150571371727313,26.937433875666457
1778536224.325276,1945924.5780126,True,-0.21736541196006381,0.06549907289327635,1.0057852702037628,-8.546578241032732,-12.941150940694309,-0.9868057388836835,5.857883120393297,-4.421811024137055,26.890931049906428
1778536224.372775,1945924.6255168,True,-0.20677995050351708,0.12565428267422563,0.9792257934492741,-8.442308823873436,-11.316555329002375,-2.4931376726568293,5.490823547450277,-4.623615793932347,26.77249653952234
1778536224.4101198,1945924.6628489,True,-0.18996783519957403,0.09511027109979833,0.9990232835083823,-10.469034996124037,-11.992790538739122,-1.7950413543197064,5.104856242447397,-4.75552278379165,26.705483876007804
1778536224.4563222,1945924.7090607,True,-0.20439750007137258,0.10452059440787985,1.0100097117605997,-10.807408170804752,-10.840041500103332,-2.533779314584149,4.629150421645561,-4.92370420136709,26.588393373484745
1778536224.5029533,1945924.7556906,True,-0.20540072367593418,0.15751828441242283,0.9765839824456943,-9.437120343433948,-11.678296189689858,-1.6332007663984331,4.284709751845611,-5.124290289358201,26.512237384883523
1778536224.5504117,1945924.8031535,True,-0.1746526360145016,0.13175782051195883,0.9814455346108124,-8.794815393974256,-12.702890402127284,-2.095405278834079,3.9405220609405616,-5.41261189158113,26.412783373808093
1778536224.5971236,1945924.8498567,True,-0.2157706334376757,0.12681149803570768,1.005891359325724,-11.827698173600249,-10.454280778962247,-2.563203950309476,3.4609101676055194,-5.5425516808777315,26.29307354684835
1778536224.6439981,1945924.8967361,True,-0.21083258915358866,0.1379934553224762,0.9702840872148816,-11.501185452623238,-11.713896232828255,-2.9896164268123226,3.0215485326153524,-5.727043936956485,26.152922122429082
1778536224.6918895,1945924.9446223,True,-0.20951945257641674,0.17541362245612774,0.9715775769674355,-9.956249841153266,-10.72552667112891,-3.3712836851995034,2.6940649345953656,-5.876207264511782,25.99148415756771
1778536224.7373772,1945924.9901153,True,-0.20319564270026017,0.19193148426855763,1.0033988213733016,-11.170247903355175,-12.61838559170015,-2.219160231358962,2.3545452884074525,-6.096262580986338,25.89052790126425
1778536224.784177,1945925.0369076,True,-0.199318136572153,0.19402442736393777,1.0019487264533733,-12.984973774358538,-11.00331853964638,-2.880481014703367,1.9270865084178874,-6.257892577535095,25.755743569617177
1778536224.831288,1945925.084026,True,-0.18268902818860255,0.220732993862948,1.0023623166805935,-11.924553680903232,-10.675650675142098,-4.0364178776934425,1.582393764360455,-6.423842024251132,25.565554017526313
1778536224.8785028,1945925.1312405,True,-0.1794144425165142,0.1787249020610514,0.9741318605931251,-11.157287318504142,-9.993080480013273,-3.3588168494101867,1.2390593672488808,-6.552385840076919,25.4069691597003
1778536224.9247644,1945925.1775005,True,-0.15350363811313567,0.23108108253096926,0.9730491902672391,-12.778056092585206,-11.648381660915794,-2.6564638519069286,0.8990228445741988,-6.774894547178205,25.284081141362446
1778536224.9713597,1945925.2241003,True,-0.15602520460979433,0.22588188413910187,0.9947920057690333,-11.88941242406587,-9.642677217974688,-2.8374232337535323,0.5909472087718821,-6.905838061663505,25.15185778615427
1778536225.0174887,1945925.2702285,True,-0.1824579804568846,0.22344266329216697,0.9610725101108378,-12.50083332068282,-10.240175148441375,-2.7171912927015933,0.2713478483419816,-7.021103172094268,25.026518643034102
1778536225.0635748,1945925.3163101,True,-0.1250574194007156,0.24203631933358433,0.9841678451488025,-14.412275931625768,-9.367479786181429,-4.1562529767640415,-0.1107267048145173,-7.163029954810001,24.834991855809108
1778536225.1113167,1945925.3640413,True,-0.14988336661252014,0.2480285504732537,0.9629589265925094,-13.080875288011264,-8.95790478970272,-4.270874473196113,-0.43481261449294123,-7.267357012549084,24.631137892152932
1778536225.1573465,1945925.4100855,True,-0.1499337581779636,0.2663045763775173,0.9849158284490942,-13.785677981873267,-9.689748808180646,-3.9616517044324073,-0.7488622398427456,-7.392044318442212,24.448726808900958
1778536225.2033484,1945925.4560902,True,-0.10651242295561922,0.2590868032172314,0.9630441187256888,-14.852526927101355,-8.898610076423704,-4.738805664229707,-1.1040941451378685,-7.52346957768065,24.230719475918164
1778536225.2510493,1945925.503786,True,-0.12325967140057945,0.25752837411753665,0.9652614788324394,-14.76619255525196,-9.328476275189887,-4.312324293613545,-1.4757448214278157,-7.66835861320018,24.02503971903202
1778536225.298475,1945925.5512108,True,-0.08635913086686517,0.25700067511784985,0.9661889276710904,-15.559352106396007,-7.024513689038665,-4.206099414726808,-1.8725929102961134,-7.742728410543454,23.825566295527423
1778536225.3463016,1945925.5990354,True,-0.10885511758218035,0.2231737221439181,0.9835994949328158,-14.806656055569857,-7.65329570077407,-4.743823711119563,-2.2749283563504763,-7.823371063435731,23.598694824011073
1778536225.3935223,1945925.6462639,True,-0.12157704195935574,0.23437460327411283,0.9536139747461589,-14.373528824807789,-7.502067072907938,-4.7224937265647045,-2.6206628710165645,-7.872975413832765,23.375658528979088
1778536225.4407263,1945925.6934634,True,-0.11084014344962265,0.27123103119617836,0.9830323498267733,-13.566544292956806,-8.398604086901008,-4.080512089283009,-2.8891308060661367,-7.979932864757036,23.18306039851414
1778536225.4871285,1945925.7398648,True,-0.09715398209897012,0.2397688312730629,0.9624926396923521,-14.27398899928609,-8.23839588667344,-4.651029100694696,-3.202026556134255,-8.083080202582574,22.967246137330285
1778536225.533687,1945925.786428,True,-0.10120100731889886,0.2213013803254556,0.9591783782721373,-13.419580348681908,-6.998088378144711,-4.10624264698726,-3.4918949897962084,-8.123358990825901,22.776046338942475
1778536225.58001,1945925.8327446,True,-0.09771792820790882,0.21816801825464258,0.9520214911736652,-14.387660016680254,-5.543754920214624,-4.608283784664327,-3.8182770879248276,-8.098256753797815,22.56260630248271
1778536225.6274948,1945925.8802353,True,-0.07410031697390757,0.26112368349624393,0.9807860034483106,-14.436124116629378,-6.38855463973548,-4.339888175112774,-4.116420362200967,-8.150106954846525,22.356501975492836
1778536225.6751437,1945925.9278858,True,-0.043211041575745526,0.2464355073768727,0.9444745091337481,-13.901497224450525,-5.170188851952112,-5.219915321739244,-4.391074277493982,-8.177843907245643,22.10777040062208
1778536225.721542,1945925.9742837,True,-0.05973594734203563,0.25542338206865184,0.9539398638796289,-13.780201002009187,-6.166244368153246,-5.654831387124524,-4.630603767704219,-8.225434382290457,21.84539809822451
1778536225.768446,1945926.021176,True,-0.06277661758164411,0.22209155234180883,0.9767040915406798,-14.38000285153632,-3.707145259013884,-5.524302258417795,-4.943115327769187,-8.1595601676034,21.586350860633726
1778536225.8154578,1945926.0681968,True,-0.015426297384131264,0.21567142135246373,0.9454100548983758,-14.03118016973946,-4.38983340158193,-6.631280281416844,-5.233834736517156,-8.180426083755414,21.27454275559114
1778536225.8613052,1945926.114039,True,-0.040312773038231,0.20156372051278565,0.9707857873737111,-14.536271153528432,-2.0156063473667123,-6.2974985438609306,-5.547808977662314,-8.060803527233665,20.985851568982582
1778536225.9083652,1945926.1611017,True,0.0074225657742831765,0.2054509254757899,0.9585497319219846,-14.211189709945534,-2.1808498230465276,-5.840777410392918,-5.85035112735579,-8.008847621991993,20.710968813082125
1778536225.9545712,1945926.2073083,True,0.013720254924031956,0.20118132861442264,0.9500094005492491,-13.509999844548714,-3.6427659259785963,-5.54667187618357,-6.105999463555933,-8.029813546009324,20.454675964186425
1778536226.0003958,1945926.2531343,True,-0.022160244187179295,0.22090847785455736,0.9540663658045647,-13.249458982317224,-3.0202684557143744,-6.034146864255507,-6.318238413729295,-7.97893005256477,20.17815515041566
1778536226.0476978,1945926.3004317,True,0.018124064223046122,0.16454238919783676,0.9593531488082294,-13.477135333280607,-0.9720659974485495,-5.818607676377022,-6.621945953457823,-7.885742690258349,19.90295013595474
1778536226.0947576,1945926.347492,True,0.008082980260239604,0.20419659290517023,0.9456785850715566,-13.487247042320455,-1.73588803101711,-6.5329865165516425,-6.867843641843821,-7.81765901679677,19.59550582973798
1778536226.1404836,1945926.3932149,True,0.05252772424781147,0.14881074442083134,0.9634324688872102,-14.317723801791226,-1.5007255602656697,-5.537541391439352,-7.196688910137828,-7.790236127719299,19.342313378681194
1778536226.1873507,1945926.4400836,True,0.027624141646518167,0.18077590799376603,0.9558079323569898,-14.784508161809574,0.5086554428397969,-6.60093153492674,-7.517712980091264,-7.643601032473998,19.03293629839838
1778536226.233574,1945926.4863105,True,0.04882076798298363,0.16879008921734695,0.946496821010364,-14.08809947730151,1.1892279665442338,-5.936304325192028,-7.803619000127952,-7.494993102759128,18.758519352949396
1778536226.2804155,1945926.5331509,True,0.04416841889213845,0.15643859979703548,0.9555694324403796,-14.320155607360713,1.6845025923067862,-5.692808617478094,-8.119136994624373,-7.3200030865537515,18.49186592035765
1778536226.3273335,1945926.5800708,True,0.0758994157276932,0.13890800911464413,0.9425490796663897,-13.14694266133442,1.2469497998768928,-5.6937503315336375,-8.394131612487987,-7.207363602639225,18.224715724219003
1778536226.3745346,1945926.6272761,True,0.043366313173241425,0.11081367018987955,0.9597683620613261,-12.716494931896147,0.6789116360729635,-7.457471607804004,-8.68293955418589,-7.083210081322877,17.872683539206534
1778536226.420562,1945926.6733021,True,0.07760588519454414,0.13173791027092202,0.9524087007334574,-12.856121143677012,3.0075470224567704,-7.323221607183756,-8.932171561988731,-6.89818188455642,17.53562494111479
1778536226.4681914,1945926.7209316,True,0.08670816934721931,0.13016809953065814,0.9476122998489316,-14.258184345652507,2.692334024113043,-7.453238106595851,-9.263269974535374,-6.738143081240179,17.180630936412708
1778536226.5153673,1945926.7680958,True,0.11349633542394733,0.08377386427108544,0.9517159108037806,-11.507048845682451,3.5620109034302514,-6.835094032921079,-9.509966396520875,-6.574234962164048,16.858259195287765
1778536226.5622363,1945926.8149774,True,0.12490378573280694,0.05590708169279743,0.9329921445679501,-13.923890075443444,2.379630617552198,-7.59325735700643,-9.89150690908927,-6.485652773216265,16.502275140797927
1778536226.608113,1945926.8608494,True,0.12598336654017608,0.09022835452664177,0.9404211484336904,-13.601807742966411,4.915580905664905,-7.123303645409942,-10.19649579861514,-6.286876347653796,16.17551495564748
1778536226.6550825,1945926.9078114,True,0.13073331477311628,0.06572878804000185,0.9629573075049457,-12.646695078978288,4.615744353513387,-6.841244675462799,-10.497213560287033,-6.102981683179504,15.854236423444892
1778536226.701045,1945926.9537848,True,0.09090240078034362,0.05349095160304813,0.9312140645408442,-11.136950816047515,3.5548460147982235,-6.446524976506138,-10.723591473083943,-5.932087545343778,15.557867752819336
1778536226.748839,1945927.001563,True,0.1161762683314864,0.026556642364326262,0.9385201981236116,-10.703369127577508,6.217925734480099,-6.8199946928366035,-10.978108501866837,-5.6633813363792695,15.232020681531356
1778536226.7953372,1945927.0480717,True,0.11066027957526686,0.019196256268605674,0.9664236604698305,-11.376409483274072,5.868751132429636,-7.24310691947349,-11.254455468521787,-5.413243141793585,14.895153195554235
1778536226.8423178,1945927.0950564,True,0.1483240830992235,0.02328887271336933,0.9315410010922912,-11.56586430801687,5.426039609803307,-8.3264050016588,-11.533630469569651,-5.236019545743167,14.503939554302915
1778536226.8899822,1945927.1427172,True,0.14305261852091317,-0.041591372879378946,0.9504551535374844,-10.460329313536139,5.9737492208346135,-7.804349417845678,-11.841089771400066,-5.023304885289169,14.131978016299067
1778536226.936307,1945927.1890471,True,0.1593451995874866,0.0018746581645237015,0.9570029233410856,-11.439567934155436,7.10171056002067,-7.516112319724648,-12.121447902828852,-4.78946284602844,13.783757284709614
1778536226.9822142,1945927.2349505,True,0.17276519364090087,-0.06280835568234591,0.9449286686692896,-10.589849763990111,6.908563712137008,-8.14426253875561,-12.430226058523612,-4.589666793341256,13.409907943261839
1778536227.0280678,1945927.2808029,True,0.16949019620682707,-0.0234747658407028,0.965586205737235,-10.75401908576685,6.676853036873814,-7.307620177355773,-12.6922912441125,-4.396904199427291,13.074836020595576
1778536227.074126,1945927.3268652,True,0.17097498306880482,-0.06455955513336975,0.9395688904090964,-8.208723273278446,7.919688948571647,-7.909541016111495,-12.88634403712545,-4.157255431917642,12.710504369593783
1778536227.1212873,1945927.3740299,True,0.1714613719877403,-0.09857596932711364,0.9431632733218616,-8.042641732427018,7.221318942642634,-8.32421682564316,-13.117782192093884,-3.945308195037871,12.317895180327087
1778536227.1669695,1945927.4197109,True,0.2023312773563932,-0.09476241824300435,0.9452965577793523,-9.415086245543128,9.209961332257045,-8.104654873784604,-13.388887010423135,-3.6945522507985817,11.947666441129396
1778536227.2096207,1945927.4623522,True,0.1749979010346287,-0.08048316313720164,0.9356853447571181,-6.199740000052849,7.795551077601673,-7.25763436026781,-13.476843301025925,-3.506003957494104,11.6381914770135
1778536227.2565677,1945927.5093043,True,0.17749080585812937,-0.11574621028521499,0.9363012781345345,-7.560254169260601,9.230949813182184,-7.848203886112126,-13.693678660343247,-3.224234316998733,11.269701823293127
1778536227.3023195,1945927.5550541,True,0.17556103193331393,-0.13774111187260543,0.9622178147857717,-7.2554093415559695,9.973073248002226,-7.019687728090272,-13.90541902993193,-2.9173690931044396,10.948552513341278
1778536227.3486164,1945927.6013574,True,0.1842598316681489,-0.11686991184071649,0.9656888106184011,-6.139494398603192,8.91885248177757,-8.093980548518173,-14.041491393549896,-2.6688316144065367,10.573774504180097
1778536227.395921,1945927.6486617,True,0.2041872698130728,-0.15801375114371688,0.9467854989400002,-6.590405929974737,10.8680224220042,-8.55910076785101,-14.251497782394996,-2.3518136879829097,10.168892232651663
1778536227.443019,1945927.69576,True,0.16884203334347736,-0.13232035974895423,0.9601418212452127,-5.166845589583111,10.740597454893805,-8.648381088441358,-14.359541669322532,-2.0066712562311797,9.761568186031003
1778536227.4904528,1945927.7431927,True,0.1955570220885004,-0.18089985829582786,0.9336054620771682,-3.6933678211959555,10.95613114193114,-7.026779455444947,-14.458804618210287,-1.6896582561679883,9.428269064581695
1778536227.5370898,1945927.7898277,True,0.1731836460175015,-0.1682469156883316,0.9635811796230612,-5.111863608106186,8.923899553280592,-8.530863963206418,-14.598275660291401,-1.448826398390575,9.030432223357561
1778536227.5837889,1945927.836521,True,0.1736388781324789,-0.1712551039433912,0.9716665600643506,-4.138837025651343,9.838608190227209,-8.929373666524342,-14.69255800121295,-1.1692657427181574,8.61349030085403
1778536227.6304162,1945927.8831299,True,0.19574254625815724,-0.16428278244017164,0.9485242008523004,-4.936159109988715,10.267669692293987,-7.136250930962447,-14.816716636745237,-0.906761236106752,8.280877493512875
1778536227.6774855,1945927.9302215,True,0.2138748170540659,-0.18866167645803855,0.9454016098846841,-3.780105565168698,11.332928386767268,-8.470317546950534,-14.915118571437514,-0.6157859736415812,7.881996687553857
1778536227.7253802,1945927.9781221,True,0.17359667634459325,-0.21245976533072508,0.9597569880888515,-1.3468308906550979,12.429471281172926,-8.89913880560891,-14.925819370042431,-0.22030250742568308,7.455722600232491
1778536227.7596474,1945928.0123865,True,0.22593947817635454,-0.2360325618059851,0.9605386621534946,-2.9601265223908433,11.736663450707518,-8.960725163914875,-14.99575024843656,-0.07913158754269617,7.148688729796176
1778536227.8074472,1945928.0601801,True,0.1944652577202771,-0.20183398591202878,0.9778931639280436,-2.8989758861453367,11.818281481637786,-8.913135924679837,-15.060494728989589,0.2555772033364747,6.722697876579456
1778536227.8541336,1945928.1068705,True,0.21975318313458647,-0.23502450608270048,0.9422610015649385,-0.4453502290253144,12.352191359836409,-8.639700836732448,-15.052725501059234,0.5606496982766311,6.319306788706831
1778536227.9022572,1945928.1549962,True,0.2089320370191396,-0.2059138600628901,0.9513096932163441,0.06577263263959887,12.796019615726808,-8.968469575880091,-14.987316235484544,0.9106383360165853,5.887692911597604
1778536227.9477582,1945928.2004932,True,0.16831684041866563,-0.23776051699174094,0.974428330292138,-0.76575743151657,13.038645618891163,-7.32032010295206,-14.992103464214402,1.283258633574608,5.554640307986275
1778536227.9944196,1945928.2471412,True,0.20610637352724648,-0.2594146498192163,0.9489685119789957,0.45596388394949156,12.546681688827919,-8.947545824151463,-14.97054829155418,1.5945154410257214,5.137255191264161
1778536228.0419872,1945928.294725,True,0.18488289568496985,-0.25449963212125704,0.9742433123196744,2.095368992990068,11.87587718215507,-7.68495067300252,-14.861308847812284,1.9083393263949073,4.771576035107006
1778536228.088528,1945928.3412533,True,0.20672227477066274,-0.2468288576097824,0.9470811211249159,2.085761525145392,11.109734791227938,-7.5721754899058755,-14.754684839608545,2.138219682174377,4.419255581975247
1778536228.135442,1945928.3881846,True,0.21673503906914707,-0.23528606318880257,0.9739842471563043,1.5818684473158287,11.692105459900285,-8.563667159893813,-14.652199784088458,2.3891028249997097,4.017351548713739
1778536228.1829946,1945928.4357359,True,0.2033249809315038,-0.26296961157086973,0.9781082189679398,2.1054911313424776,10.55181853381947,-8.595365613377403,-14.555985853215656,2.606016785637313,3.608630740587399
1778536228.2371998,1945928.4899331,True,0.20772547637416805,-0.27043970811155477,0.9533690591177576,4.175211729599358,11.477024225345781,-6.9762236426143645,-14.352936834512889,2.9267052726758274,3.2305389518282386
1778536228.284021,1945928.5367563,True,0.1871740462289212,-0.27727009637106415,0.9789901840228918,4.445934924360959,13.323780521736452,-7.373822889375648,-14.172780658052432,3.2710892854710805,2.8852729691060355
1778536228.3302157,1945928.5829578,True,0.16633042273547272,-0.2690083803205658,0.9833717092293176,4.747964482061642,12.468962285380197,-7.2682665369744,-13.976248096437216,3.5849087851078703,2.549468151896118
1778536228.378406,1945928.6311432,True,0.15769290351932413,-0.22912006910569815,0.9587742979346002,5.235510550814827,12.836418356519314,-7.253328192705604,-13.714857120712258,3.9375969573859955,2.1999636318436537
1778536228.4250393,1945928.677775,True,0.17251591234635094,-0.2569531760325255,0.9760507717104151,5.437204046081339,11.833175000315228,-8.629587272086793,-13.48275250007674,4.205620096636328,1.7975504439959542
1778536228.4717307,1945928.7244689,True,0.17896462866348728,-0.253831447215416,0.9746625592621507,4.861436631824205,11.36046315286443,-7.4944263508143,-13.277983715764034,4.439848224607304,1.4476064501512393
1778536228.5177884,1945928.7705258,True,0.14774081727040303,-0.21848901468932017,0.9729084563612101,6.828280292955332,11.921444386676942,-7.137708654224774,-12.954588102262438,4.720576957923199,1.1188657151966124
1778536228.565396,1945928.8181328,True,0.14181673676170892,-0.2079841310877815,0.9710667856370417,5.554130718618994,11.233827100542044,-8.525505208446791,-12.675685308421846,4.987736261972421,0.7129919888585199
1778536228.6120868,1945928.8648212,True,0.1413071331458762,-0.24166818538390086,0.9831306970980827,6.323186800059248,10.306355159256931,-7.3459974707756945,-12.406359712527186,5.2006286107164525,0.3700191207193828
1778536228.6588895,1945928.9116219,True,0.11011420059528702,-0.20368467833015902,0.9765351141540878,8.141018163090433,11.255272031001063,-8.02723330694723,-12.019040002104154,5.486854248664332,-0.005661017240064847
1778536228.705331,1945928.9580691,True,0.1141259809802754,-0.22188165303327811,0.9726363170237102,7.0164470000964165,11.692143416295018,-7.085245160300278,-11.714601827302916,5.778800283659304,-0.33475081626478836
1778536228.7531254,1945929.0058673,True,0.09313207445847274,-0.19871022844621136,0.9621807505857204,7.546114786458957,11.537202455306893,-6.663947829230922,-11.35915119252601,6.09535224329219,-0.6532755276943518
1778536228.7996883,1945929.0524231,True,0.1268619458571857,-0.22623603705666528,0.9761364172542698,9.5169698754653,11.569249075970376,-7.308406473785024,-10.956633990744576,6.356974955263003,-0.9935242370593823
1778536228.8449516,1945929.0976927,True,0.10751078375799297,-0.18760679669974334,0.982054111036425,8.997125964426335,9.853933693567134,-6.516552911405862,-10.553400251902067,6.544247792980788,-1.2885259814916337
1778536228.8911724,1945929.1439135,True,0.10782275062843746,-0.20953697185227993,0.9962336565567796,9.010280205863149,10.334856779544817,-6.838437842835658,-10.170415540463638,6.760577874829494,-1.6046040487089226
1778536228.9393902,1945929.1921047,True,0.07480283870519266,-0.1651669240821232,0.9883768261427418,10.133450552812743,10.021000741005102,-6.930060052001596,-9.67763954824824,7.013250617508592,-1.9385719587595585
1778536228.9863396,1945929.2390719,True,0.09221957307557344,-0.19096454578587402,1.0041863867759697,8.708653481628815,10.084116605452495,-7.756804125052589,-9.297710315405437,7.23403247024803,-2.3028873294893764
1778536229.0269926,1945929.2797228,True,0.09175150266152411,-0.16279437954450776,0.9938957269991885,8.967925217616903,10.493592172579444,-7.381759204307026,-8.939761289751264,7.403287564211903,-2.6029624846367074
1778536229.0674021,1945929.3201312,True,0.0419568242673832,-0.13118848346929568,0.9707729833357492,11.07120083515234,9.719493257766565,-6.139106760530657,-8.476326548470782,7.59106562137196,-2.8510339655675665
1778536229.114433,1945929.3671712,True,0.03873697630492173,-0.17566071685551565,0.9905893235414684,11.639784924169673,10.173580280760579,-6.841170179232135,-7.971178757698492,7.864137365926953,-3.1728426114296635
1778536229.1612775,1945929.4140184,True,0.027490716242341968,-0.15966451364505246,1.0061778958740102,12.085964794251547,7.640144616148138,-6.093779907219229,-7.437154332506709,8.02670139142091,-3.458319137628014
1778536229.2083259,1945929.4610682,True,0.06605286455600773,-0.1443447073915987,0.977030717103678,12.164359187889783,8.214342725247656,-7.182429798664812,-6.895229462730928,8.168396257531251,-3.7962510226954054
1778536229.250983,1945929.5037234,True,0.03485624853583008,-0.11142423936652682,0.9851384877561552,11.318733498415359,8.627008728706166,-6.3220744094479935,-6.413158536138429,8.325383968778617,-4.065920371038905
1778536229.2897077,1945929.5424484,True,0.04316675664905549,-0.08615480098910684,0.9908863599965024,10.628856593129468,8.68012098966081,-7.331282223408747,-5.980815461415234,8.438589626945976,-4.3498242759297
1778536229.3372734,1945929.5900112,True,0.02619117925361323,-0.12103897184456533,0.9927077511411094,13.374187717523036,8.76465033606361,-5.71072071592588,-5.376792769425424,8.64834748350604,-4.621442142524096
1778536229.384357,1945929.6370994,True,0.02739971716555853,-0.060083557174426185,0.9835932378229013,11.475176337078027,6.673014940066832,-6.044800975088075,-4.809603652711191,8.751462497390035,-4.906080939760524
1778536229.4321938,1945929.684935,True,0.01252230409983178,-0.05521826280389811,0.9988818838575784,12.686339578151715,7.739694512999208,-5.628430900832982,-4.181967012679947,8.924918603183489,-5.175320309504862
1778536229.4787624,1945929.7314993,True,0.018912440886481512,-0.08365049764719604,0.9831807062395501,11.743522601454654,5.4631513779273915,-6.605819223538156,-3.6596794265570374,8.973759530378068,-5.48291565809665
1778536229.5133686,1945929.7660963,True,-0.03305906330169035,-0.07913857943508101,0.99762726049058,12.36664517270235,6.426650018382978,-6.096130741203828,-3.2578562968963456,9.050020613049806,-5.6938234925840305
1778536229.5604434,1945929.8131768,True,-0.032876637540471196,-0.010346070696892369,1.0181258908025979,11.918406416909825,4.8457956295491895,-5.099646529642229,-2.654435315152883,9.129588207456292,-5.933917401284868
1778536229.6068475,1945929.8595819,True,-0.03741492220418244,-0.007819725975792221,0.999179022182055,12.414142935692928,4.602265400663326,-5.361389758431138,-2.0457503000014583,9.199181877399871,-6.182713229329103
1778536229.6540222,1945929.9067586,True,-0.014686554364186186,-0.029340749285392327,1.0189245704332148,12.356783747652667,3.8320501838395513,-6.272311266686797,-1.4665270786575966,9.208875040582543,-6.4786201753394845
1778536229.7007775,1945929.9535189,True,-0.0410400719740448,-0.01391402582449038,0.9890566402769484,13.335009679919398,3.062947920310059,-6.264571931939129,-0.8422242558672103,9.212574261111751,-6.7715534393408
1778536229.7481132,1945930.0008412,True,-0.018674916602194662,0.034630734616315335,1.0060392661371589,12.906951078366157,5.058354072697065,-6.265223896732706,-0.18738557409968074,9.284164649403543,-7.068038242877865
1778536229.7952344,1945930.0479705,True,-0.07338787028485452,0.01792372961901871,1.0186955729524052,13.501226816450009,2.2413311711848074,-6.125456302070223,0.46004739883729484,9.284398928684926,-7.356726711739692
1778536229.8415492,1945930.0942741,True,-0.09183267534410415,0.027790550126195544,1.0082909835852139,14.455919185305515,2.610558282210132,-5.466626665044979,1.1382660085394776,9.321212373642444,-7.609851205312773
1778536229.888247,1945930.140987,True,-0.04574506450135197,0.0805575389837348,1.000652008052185,13.467227564834594,3.406150504858441,-4.397347914487037,1.8239699155760323,9.342897863735939,-7.8152640789108325
1778536229.9351377,1945930.1878772,True,-0.061201550883486146,0.06845384709683303,1.0288155339041412,15.168232091237305,2.373980723824217,-4.961820202274843,2.5605062336828035,9.333067433311973,-8.047924821133822
1778536229.982254,1945930.2349912,True,-0.06598740675449621,0.10228392849301947,1.0117154670846336,14.603720589908786,3.0239541622343755,-5.558963782405667,3.2987910361296473,9.360284451219288,-8.309829840540264
1778536230.028393,1945930.2811263,True,-0.12228226193461315,0.07994251429270588,1.0109258837094681,15.196921866669491,-0.031566942164113154,-4.1827344435527865,4.00968191259447,9.309166926537488,-8.502800712661427
1778536230.075587,1945930.3283247,True,-0.10145005949392163,0.11395952172693917,1.0068589465615867,14.971291391272613,0.3543460452802878,-4.608116723776164,4.750480459488297,9.253721344960974,-8.720296448582499
1778536230.121802,1945930.374537,True,-0.10212308635731907,0.10333007815451396,1.0055854710715861,14.847894888693054,0.8510852807756821,-3.7628998945942547,5.444644855819833,9.222564348076562,-8.89418870722994
1778536230.1685243,1945930.4212636,True,-0.08982230742762473,0.1344658934309632,1.0099609557904963,16.456012326783277,-1.5547139812712165,-5.490479664749666,6.240392224114265,9.06768118399508,-9.150740154520399
1778536230.2114048,1945930.4641351,True,-0.12107779639410282,0.15093310448324584,1.0330456828535552,15.910226728256447,-1.1692121787925833,-4.6818440861906065,6.949170830174257,8.969508880775567,-9.351457832792281
1778536230.2591436,1945930.5118687,True,-0.11486906784324843,0.15484726275220678,1.036391365867543,13.598329751980001,-1.3370341215648383,-4.6737413848387135,7.6152373596856835,8.852688067387236,-9.574552334646297
1778536230.3054597,1945930.5581976,True,-0.11612172216718619,0.1457502263160732,1.0254531554269433,14.393208171434617,-0.8919858174645783,-3.8393925288672914,8.277191910223543,8.76307347546567,-9.75242716774936
1778536230.352214,1945930.6049556,True,-0.13056628809504053,0.1848790221871587,1.0140648795102951,16.088148889329684,-0.8078594173533307,-4.188751129006744,9.053844601275063,8.69517487983315,-9.948284793208796
1778536230.4004083,1945930.6531419,True,-0.12068539183250168,0.19713429062022528,1.0277518777371595,15.525494381520883,-3.4857250242682416,-4.540678025480771,9.821636287234606,8.488237123006048,-10.167083266097578
1778536230.4471946,1945930.6999228,True,-0.15986183596111053,0.19463829233419638,1.0125089430579113,15.419011265841759,-3.218876960783131,-4.738003939400786,10.54712077693842,8.347170455452597,-10.388731355052434
1778536230.4937696,1945930.7465074,True,-0.16605939707385445,0.18426551945235703,1.0155395663904379,15.927221505660825,-3.825051764397497,-2.9250075407055753,11.266346879718586,8.18840363373545,-10.52499166099455
1778536230.5413506,1945930.7940918,True,-0.15924870143671183,0.1755533069807321,1.0360489535385144,15.060398231306593,-3.390255371892114,-2.778870877371622,11.933478204710871,8.038887969409451,-10.657222564501295
1778536230.5889473,1945930.8416413,True,-0.17482028072818345,0.18624022689408046,1.0457084331729667,14.177302325617113,-5.466986490091918,-4.311976377595002,12.554710382510011,7.810285793439627,-10.86225488482485
1778536230.6350443,1945930.8877641,True,-0.17364109349359555,0.22750250918193113,1.033857950217126,15.010203870386473,-5.725103167534996,-3.116332345443995,13.226963468444518,7.58160894585095,-11.005988858617563
1778536230.68126,1945930.9339971,True,-0.149086526098885,0.21883748271393574,1.0386175693000224,12.803705705212732,-4.1814633085394055,-2.810431755082124,13.7781568522128,7.400429939013172,-11.135923549952913
1778536230.7289608,1945930.9816792,True,-0.1607693187445875,0.2499666907987129,1.0533872899746766,14.519659405865278,-4.908328830961384,-3.684880733050793,14.44511167118932,7.191993866310547,-11.311626401464572
1778536230.776058,1945931.0287956,True,-0.2024566491344069,0.22273795207725805,1.038251853168638,12.886026714560574,-5.290044767586652,-2.451048748692973,14.989026227019634,7.0197797758026805,-11.427110994667423
1778536230.823305,1945931.0760452,True,-0.18570683563797408,0.26242601758137507,1.046393893485176,14.256985873304224,-5.190694743145395,-1.7840225631562177,15.626823709952808,6.8343769600433495,-11.511405347271754
1778536230.869286,1945931.1220267,True,-0.20021793308477012,0.2317331867650777,1.044408153018657,13.377492651211323,-6.597589555906952,-1.6832822476484164,16.162967049878105,6.6123988576335755,-11.588805190051335
1778536230.9165852,1945931.1693164,True,-0.20105157838579474,0.2580418875545161,1.046775673234152,12.916701902494774,-7.027687623529485,-2.1220315301316424,16.71049226853669,6.365729590317449,-11.689155424532606
1778536230.9632561,1945931.215997,True,-0.1659975069428105,0.27114433586485714,1.0444858195215572,14.237587197411205,-6.312644141366342,-2.608248207175449,17.315202781027345,6.124534276529065,-11.810910015575281
1778536231.0102024,1945931.262938,True,-0.21774030263894784,0.26359090650014905,1.0444170424652919,11.442013409458895,-6.409289932697281,-2.6275680220413697,17.772817553376598,5.935759859164537,-11.93425068619487
1778536231.057179,1945931.3099206,True,-0.19694306059540787,0.24388105308367475,1.0581889119346473,12.599049983086275,-6.510734411371319,-2.394208470354107,18.25278844492772,5.722858868120051,-12.04673682480597
1778536231.1032825,1945931.3560175,True,-0.20877016044337116,0.2440567615571034,1.0359615797831339,11.06763900008924,-8.970258650356085,-2.4496706979432155,18.647793117003825,5.425127673341541,-12.159659050032229
1778536231.1509001,1945931.4036381,True,-0.18805886333396582,0.24878710670702484,1.048870245530243,12.026141319079985,-8.362196840522678,-2.2038719116018477,19.098906889477295,5.124296715262677,-12.26460875298295
1778536231.19857,1945931.4513097,True,-0.17618943722990982,0.24451317066786069,1.0512405682148058,11.01123158525368,-8.420129930346238,-1.807000627392059,19.489750407733908,4.813865799194842,-12.350751364113613
1778536231.2442749,1945931.4970094,True,-0.2105808408882565,0.22277319475035381,1.0307234317752467,12.660347874711345,-8.259619223901755,-1.3303821874844097,19.906083025845394,4.5735359542037495,-12.411549430986506
1778536231.291615,1945931.544356,True,-0.22940618461500417,0.27531496302672903,1.03692534503973,11.723054405886888,-8.85496313872619,-0.9119922191972083,20.342578048964466,4.312591790905145,-12.454729161669473
1778536231.3372343,1945931.5899725,True,-0.17814029655366645,0.25281225765814636,1.0339937234077594,10.91189137707009,-9.120921248254795,-1.9579676077112085,20.694478391466493,4.008609516690977,-12.544044791202548
1778536231.3835042,1945931.6362443,True,-0.17998599517413938,0.2515681886874392,1.0551880500414867,8.843887146191854,-8.988462339128198,-0.1437318515661521,20.946135762296528,3.709259457792643,-12.55069552270098
1778536231.429551,1945931.6822731,True,-0.18104930317114498,0.22415938399910465,1.0363175728045522,11.164339679146567,-11.60179027639829,-0.5381217718046712,21.271386542324603,3.3055403690364704,-12.575464622026562
1778536231.4771748,1945931.7299132,True,-0.2000737027081991,0.24019695153415788,1.0623641999277633,10.679012719099253,-9.30655508368072,-0.5300806669794593,21.595074741604805,3.0131065377181807,-12.600717718073934
1778536231.523905,1945931.7766445,True,-0.2060022190702329,0.23252477390488657,1.0293158095657464,9.989118363006016,-11.630913074886095,-1.5339347007386364,21.870439547638703,2.6411098497266092,-12.672400480683287
1778536231.5706508,1945931.8233866,True,-0.17509795510590515,0.22698842640083713,1.0369823565599803,9.977109681659766,-11.110704082070054,-0.8092641154933908,22.13365001940657,2.266666363698025,-12.710227184925039
1778536231.6172464,1945931.8699872,True,-0.20934164547690132,0.22281353748844962,1.039870076760581,7.252839231574591,-11.260428214563127,-0.6991923804547757,22.259461283497963,1.9298077273083818,-12.742809969373896
1778536231.6649377,1945931.917678,True,-0.2136502357265182,0.18899048282010428,1.0657869042242634,9.112665142456224,-11.159917770854225,0.7908386530170193,22.43743415930497,1.5929445612539364,-12.705094241399529
1778536231.7120864,1945931.9648257,True,-0.19284041861937365,0.187247484858082,1.0332859010669067,7.645729104476162,-11.224575652085662,0.8688504195342094,22.543968518257497,1.2505712892609466,-12.664129942389819
1778536231.759934,1945932.0126629,True,-0.20158918474044188,0.19080299098992942,1.0308103741235213,8.494929780499595,-10.58493903839431,-0.07322021095691278,22.697255455413135,0.9470321411049538,-12.667632592256334
1778536231.8063745,1945932.0591122,True,-0.1615326003668473,0.18544336259579897,1.0479435485207196,7.160967243764466,-10.68253852176389,-0.5596596001719328,22.76768662325513,0.6144333866017586,-12.693628388997904
1778536231.8526592,1945932.1054005,True,-0.17825915305668177,0.14891267138472894,1.0648969439671099,5.252058614859559,-11.492738571389623,-0.008350446464132744,22.70763192281376,0.2690656258368715,-12.694014916967634
1778536231.8981056,1945932.1508467,True,-0.16907925596604215,0.17457896209309115,1.038728002861261,5.025364000657272,-10.97248117612163,1.2080944365731705,22.665671985144673,-0.04260927886992899,-12.639111615507586
1778536231.944478,1945932.1972053,True,-0.1718023801285594,0.16514104294607843,1.0684255192841732,4.710554427094205,-10.421633921355895,0.5272767934704283,22.59989886150726,-0.3346364878774484,-12.6146678015361
1778536231.990291,1945932.2430318,True,-0.18359777283352968,0.16530048501096373,1.0329990741349717,4.709000506737369,-11.908667932356444,0.6782394878777148,22.538450031780393,-0.6636808847724444,-12.583586459611732
1778536232.0371728,1945932.2899144,True,-0.15763235813919754,0.15631226030574932,1.0458174591576306,3.7660559312436526,-10.910689521022835,1.3103858961083577,22.42885540625572,-0.9821247747599561,-12.52215216172301
1778536232.083477,1945932.336213,True,-0.12352258323288683,0.10862235865333851,1.0567398095712568,2.7099482128300005,-12.30977308618925,1.8190797254574285,22.219824011785263,-1.388360419556518,-12.437931317506202
1778536232.130925,1945932.383661,True,-0.16099845040235375,0.11018485347409365,1.0330567933651922,2.097432879825374,-11.461817521744269,1.2263933050133893,21.99327650590865,-1.7173782271790035,-12.379741407758798
1778536232.177217,1945932.4299584,True,-0.11485268617341066,0.12480593493384672,1.0332981502140763,1.9927446613752333,-12.641451619330706,1.9404256274510212,21.780730736239196,-2.130649983585712,-12.289904746264673
1778536232.2239985,1945932.4767281,True,-0.12647238810389028,0.09837849081143768,1.0672990038407741,3.5994170107567562,-11.07717193234529,1.3044912481782047,21.614692551491302,-2.461158762113598,-12.228894081917662
1778536232.260895,1945932.5136239,True,-0.1094438482194463,0.05933462541448019,1.062806761206119,2.8812641779839563,-12.506267474828924,1.2188872861775175,21.35015173804073,-2.7467296826710177,-12.18392226048641
1778536232.3070583,1945932.559791,True,-0.09481380852982585,0.09643097359785167,1.0566595662790494,1.0982628222058275,-10.76392033331021,2.3004067649545603,21.076710833568555,-3.0766693325668593,-12.077719151141237
1778536232.3539414,1945932.606681,True,-0.10848208341009496,0.027213627894255785,1.032599528274574,0.7817606528944432,-12.723912824041651,1.4813141392010918,20.72112808582999,-3.479922296272884,-12.0082603313298
1778536232.4022312,1945932.654971,True,-0.11555929643225422,0.019502821969060308,1.0587735298754193,0.8498962540831888,-11.690369058083064,3.155100422734972,20.36790722346262,-3.8390049203263437,-11.855900531713061
1778536232.4481773,1945932.7009181,True,-0.06777374560071589,0.0011287541663384595,1.0424195599049164,1.5543479846483332,-13.080721967170458,3.0891860561336593,20.031776712858502,-4.276827768272841,-11.713961390962547
1778536232.4948366,1945932.7475776,True,-0.10814311071604454,0.013595244273941508,1.0551159851134906,-0.07227176282763453,-12.335657926005936,2.046309252039242,19.642523908137516,-4.6383241443154795,-11.618481624677976
1778536232.540289,1945932.7930264,True,-0.07462275141049564,0.012688781776281645,1.0438818744193972,-1.782910933846055,-12.665066017342049,2.0422185242919215,19.18415579592762,-5.027885890161792,-11.525665243241123
1778536232.587137,1945932.8398628,True,-0.07567859311104062,0.00311977940438043,1.0450813754295045,-0.6137757085606226,-12.199540336568303,3.665795497212202,18.775712422357266,-5.404447620194712,-11.353972579239432
1778536232.6321266,1945932.8848686,True,-0.055485653545624715,-0.015292390376375437,1.058777995862531,-2.9026797817985805,-10.028805474993908,3.206506901908808,18.255646366770794,-5.678694990636177,-11.209661171010795
1778536232.6788738,1945932.9316132,True,-0.03670908733330426,-0.05213479760315265,1.0456636356753588,-2.4468384816006425,-9.352007927421745,2.873249071070546,17.721393670851857,-5.953371670786577,-11.075352291991264
1778536232.7253177,1945932.9780602,True,-0.07206413972720818,-0.05131143059520221,1.0356756475728854,-3.42361067194277,-11.06118899142186,2.7347065272714253,17.154539521043233,-6.258278790162893,-10.948333377917375
1778536232.7713833,1945933.024125,True,-0.040112893935221945,-0.0651703549062774,1.0522225450824034,-3.15070004254832,-9.675317396763047,3.3500158031176133,16.598383636453757,-6.526310847642726,-10.794015570337406
1778536232.8180704,1945933.0708105,True,-0.013490034308015344,-0.09392661127258947,1.0632857334713193,-3.00926882290757,-9.99989203157499,4.223700398964567,16.027780864943175,-6.838816386971647,-10.596830005063975
1778536232.864473,1945933.1172125,True,-0.047254690449494194,-0.07968425606984651,1.0501021613668655,-5.336800254749751,-11.448422102208582,3.6572649207319405,15.377838730142283,-7.171261135577911,-10.427125598611529
1778536232.911031,1945933.1637718,True,-0.013207634461011312,-0.0757209746274614,1.040722123610254,-5.395654981291406,-8.332657229390023,3.4264635685946363,14.740867075971465,-7.393535834429605,-10.26759185324237
1778536232.9583282,1945933.2110685,True,-0.01870195576336689,-0.12171210499502529,1.061226243174106,-5.851169966104415,-9.907595072563096,2.9393956594622157,14.044010272726691,-7.684828876262309,-10.12856813835614
1778536233.00543,1945933.258165,True,0.026293732655836073,-0.10429635559155084,1.0529942777618055,-5.48051268931437,-10.363028254375962,3.278638063560618,13.39708340511848,-8.037902238495565,-9.97415576099113
1778536233.0519354,1945933.3046762,True,0.014001370631566428,-0.15915693224683913,1.0326570056021163,-5.984901835773126,-9.07400253446971,3.9061650570361492,12.681125986959948,-8.306100853722244,-9.792475336697285
1778536233.0990345,1945933.3517749,True,0.04294567261002921,-0.16384094069482463,1.0594699571807562,-7.4198608254269125,-8.034417495400133,3.5628581044754144,11.909352450257732,-8.55670081188604,-9.62466935184476
1778536233.1455874,1945933.398326,True,0.04953036928133298,-0.16280984240101476,1.022271890513529,-5.557817701658756,-6.921789380154828,4.934312654898492,11.236844161833316,-8.756127626580591,-9.394971670121958
1778536233.1921668,1945933.4448975,True,0.05450581347161729,-0.15049564042942104,1.0266232256953056,-6.978508867205749,-7.075973679415998,4.033571500538892,10.527043894898593,-8.964093701018422,-9.20712219444523
1778536233.2392745,1945933.4920095,True,0.022128231256025206,-0.17156760068699273,1.050643733650607,-8.799599693843064,-7.305680182170226,5.454474095176356,9.724779942683158,-9.145929211205452,-8.950151011189696
1778536233.286392,1945933.539124,True,0.05030431562155528,-0.19191659880544995,1.0468801565274561,-7.079415327805494,-8.311073458698967,4.918607536730426,8.99588128347845,-9.400871541143685,-8.718413277164709
1778536233.333259,1945933.5859949,True,0.06496206276561857,-0.17616602867466746,1.0492138354131677,-8.185798238340183,-7.861611260153461,5.579195597840373,8.249694623453498,-9.643848457880315,-8.456911357742568
1778536233.3801448,1945933.6328794,True,0.04635973411575173,-0.17703553513461187,1.0348667282619715,-8.760897238975177,-6.341984166256637,4.041452367415569,7.488202943137902,-9.792931996529562,-8.26742988440061
1778536233.4273226,1945933.6800599,True,0.09513763507897462,-0.22617061491978785,1.0531400580280819,-10.715821818942938,-7.435743041758338,4.885066885729589,6.601513929109689,-10.041828065888641,-8.036949985639902
1778536233.47327,1945933.7260113,True,0.11719763980153133,-0.2387959500516353,1.0341331097159812,-8.650011630688287,-4.486258121895327,4.932187098741665,5.8215015002076616,-10.16904392631064,-7.810309083626675
1778536233.5198421,1945933.7725747,True,0.09621602843140409,-0.20664159866611997,1.0498655688720049,-8.865096621788847,-6.359977843706078,6.013506382044693,5.0787444307748,-10.358647655643301,-7.530299780823793
1778536233.5672517,1945933.8199873,True,0.10622172304804435,-0.21553792861172888,1.0390040207985605,-9.66204304960063,-3.69144223826168,4.414519036306403,4.2950192029078345,-10.43732381991212,-7.32099595496515
1778536233.6129172,1945933.8656523,True,0.09516599455211762,-0.2555948591118314,1.0420707661019082,-11.304010248570398,-4.051909322862567,5.771597468828229,3.42871981263018,-10.511278813275025,-7.057435957319551
1778536233.659051,1945933.9117877,True,0.12358485157653762,-0.2568920950300981,1.0243123826867548,-12.420574826333882,-4.403000889943127,5.958666576002466,2.5189435699786644,-10.633620902176444,-6.782530491629702
1778536233.706435,1945933.9591734,True,0.09518908171879366,-0.21478333879216346,1.0367203670595273,-10.614954558429037,-3.126916383455486,4.929202172398323,1.742487070117133,-10.668907201905268,-6.548956796017334
1778536233.7540627,1945934.0068002,True,0.10620008510795004,-0.2671859477737922,1.0409506104888286,-11.148093738070463,-4.16555315330716,6.774398580150378,0.9008212222251251,-10.762824892157749,-6.22631386879457
1778536233.8007133,1945934.0534464,True,0.1441765724782256,-0.25963618547673256,1.0360200411501108,-13.053663471227479,-2.1383377934619676,5.613921224796043,0.00727778301148424,-10.799075874396502,-5.96444577718939
1778536233.8481028,1945934.10084,True,0.13698427934242374,-0.2326720697099586,1.0365315249313567,-10.885576018351053,-3.178276769375648,6.174799601457107,-0.7493759742782957,-10.87766395344975,-5.671799794854856
1778536233.8941846,1945934.1469109,True,0.13865790971732553,-0.27578462896400924,1.0254081425566848,-11.961629660500254,-2.229007119725285,6.54572122769925,-1.5729270512561127,-10.90954301907276,-5.370232526436702
1778536233.9413707,1945934.1941056,True,0.13564450285357937,-0.2212220087820479,1.012724051836108,-12.002693814821711,0.008062418158247597,5.385055545347791,-2.3409327399411235,-10.840080445497968,-5.11608644554651
1778536233.988182,1945934.2409087,True,0.1490222991954788,-0.25630824076126624,1.029217084299623,-12.786920539166488,0.20395837877551448,5.9936458300037065,-3.1575183509303115,-10.773878783513657,-4.835565240192916
1778536234.0347795,1945934.2875166,True,0.1570151199309731,-0.24099491234200704,1.028211505723022,-14.117697697962575,-1.176801502023549,6.220116358452799,-4.000105469808935,-10.781285723794504,-4.545658679310464
1778536234.0812485,1945934.3339857,True,0.16084986694323616,-0.22379835709665297,1.0335062194234366,-12.543530795580125,0.2733456479824967,6.783435603607391,-4.732878090062328,-10.726190847706462,-4.230438531546804
1778536234.1293917,1945934.382118,True,0.16164244349177634,-0.2518030228311361,1.0021046535428435,-14.333589869285808,-0.8235853686875124,6.141391795500804,-5.592970931692886,-10.728340800006313,-3.9348392197733872
1778536234.1759448,1945934.4286817,True,0.19584120852896025,-0.21539419883115907,1.0186360971675057,-15.122833840842926,-0.24959850938527772,6.975785743518777,-6.405819012340229,-10.738219950421962,-3.610020824629392
1778536234.2234013,1945934.4761383,True,0.19756515104508998,-0.24989928949506138,1.0294489702010163,-14.292215463268022,2.3303788904306817,6.603040778783029,-7.210577816022917,-10.626358347001704,-3.2966629595752557
1778536234.2701235,1945934.5228601,True,0.1700362745892182,-0.25504966081152197,1.0008152630027076,-15.782672657762024,0.30852087774029524,7.217278166978829,-8.071076810598957,-10.586686184088009,-2.959458732530533
1778536234.3170269,1945934.5697684,True,0.21735922353982345,-0.2526450755185389,1.0150499370150872,-13.19364260167899,1.288246584618531,5.982425508092456,-8.78974465804216,-10.550507857976857,-2.678833322641698
1778536234.363745,1945934.6164816,True,0.1824649302681184,-0.24685509310133508,1.0261882804952123,-13.608443420869367,1.5599038832230416,7.779944949920343,-9.50341875324809,-10.464250368698805,-2.315407196923708
1778536234.4105246,1945934.6632618,True,0.20114240445294707,-0.25273495713200406,1.0004330040620926,-13.996969790161005,3.0667978383152947,7.071882135965241,-10.233245680595568,-10.334977610799008,-1.9845831363920405
1778536234.4569447,1945934.7096779,True,0.20190685193847335,-0.2396030423801378,1.0195542839402427,-15.025690918474785,4.454109953456654,6.539565929900272,-10.971698836471843,-10.143905587056151,-1.6810419910064784
1778536234.503362,1945934.756099,True,0.17336277456776725,-0.186335263850512,1.0166030789876601,-15.018938471246965,4.761397307246751,6.249788105292523,-11.640354798766916,-9.914858424826711,-1.3909199514378132
1778536234.5427911,1945934.7955275,True,0.1983071995501832,-0.21256173845714987,0.9873769181742494,-15.93104432954519,3.0058024788836986,7.826020938563262,-12.26148565099655,-9.822584953805459,-1.082351684916948
1778536234.589196,1945934.8419327,True,0.17225118154836305,-0.19476083469431318,0.9875950380474994,-16.422270534772462,3.8991908427914814,7.979144086140848,-12.98297611537428,-9.643016383983142,-0.7120779084476303
1778536234.6374638,1945934.8902011,True,0.21009214951140984,-0.17271902270828945,1.008637933328073,-13.69384849731659,5.010415263665259,7.774631560612092,-13.561410666714862,-9.445185690905523,-0.3368088832062018
1778536234.6834714,1945934.9362084,True,0.2191624014610748,-0.16985107647222775,0.9884272146134516,-16.135527134696723,6.6752526705806865,6.829346360134656,-14.208158542984336,-9.201850035506967,-0.022609096216413382
1778536234.7302966,1945934.9830359,True,0.17358476985104312,-0.16255285659303065,0.981843173125032,-14.982759757709095,5.203461703800963,7.900401068094096,-14.79675851681514,-8.9769018115145,0.3473469347014624
1778536234.7771735,1945935.0299114,True,0.21220603531953022,-0.14319604930033486,0.9857060269453569,-13.501733217440329,6.263442041501518,7.519708256896028,-15.282726291833221,-8.750171426770606,0.6998370200016308
1778536234.8235195,1945935.0762556,True,0.2067276856576371,-0.12788414834014117,0.992944085948106,-14.249102728009499,7.320358638604485,7.082438027254202,-15.76795681877678,-8.476038818364222,1.028066943831844
1778536234.8694735,1945935.1222104,True,0.1981090782108648,-0.1453312470816722,0.9797081092791787,-15.16357835171846,8.31453594698626,7.175327403656456,-16.30095506700228,-8.158291659418804,1.357807679443987
1778536234.9151556,1945935.1678974,True,0.1978422624163539,-0.14505135845479306,1.009488396094888,-15.943682412521337,6.994406049371392,7.386924988739973,-16.849308778805447,-7.901532839238975,1.6952941216584905
1778536234.9621062,1945935.2148432,True,0.2104679532705187,-0.14019103766814844,1.0045703046419292,-14.71379006677042,8.651131084645893,7.980977974257138,-17.344813618065192,-7.579940611626234,2.069967518028533
1778536235.0091722,1945935.2619085,True,0.18117907914598,-0.13525461926785173,1.0097889460315814,-13.808150020126574,6.653362579862241,7.406338053851181,-17.785013500196477,-7.323137177312962,2.418549039957775
1778536235.0570152,1945935.3097525,True,0.19322655334822697,-0.0791824354888481,0.9984610242580707,-14.609540638023088,9.810868351969201,7.611078594846742,-18.203353741103456,-6.935056709724806,2.782693483700586
1778536235.1040738,1945935.3568149,True,0.20417996588627152,-0.06682167243821656,0.99886060761406,-13.571194403127269,8.050636090154526,8.56812684144366,-18.540204770816025,-6.6556062601927355,3.1859300966201496
1778536235.1508234,1945935.4035641,True,0.17223991709762623,-0.08264075816015336,0.9857817782164059,-13.28702288739077,9.878070971098811,7.516344024904275,-18.872552553906242,-6.267477071490315,3.537313166509415
1778536235.1973321,1945935.4500688,True,0.2017281721672146,-0.07680838487729941,0.9985443851150394,-15.296122636334145,10.66831151882974,6.939800982439582,-19.278451870248816,-5.88369422419406,3.8600465298871636
1778536235.2440348,1945935.4967703,True,0.15193853344896113,-0.02703764712093934,0.9728089281692115,-14.718372659797467,9.575864832205987,6.983176535900897,-19.59796497849969,-5.505230691061378,4.186171348595399
1778536235.2913122,1945935.5440457,True,0.19320868069240055,-0.05643976243627134,0.9832135488806137,-13.226888418996928,8.5853797435939,8.457970105044005,-19.88328286483048,-5.219357731163209,4.58602526868585
1778536235.3379426,1945935.5906811,True,0.14371979080562194,-0.03669366098040609,0.9835409521420261,-12.748747907448346,11.185694708846183,7.622418367395437,-20.11055235023987,-4.769910239732431,4.941499798507955
1778536235.3838322,1945935.6365711,True,0.18137760296465066,0.01088336192154989,0.9993225761904493,-11.912759233743975,11.133676059741498,7.523892608393604,-20.231805510705126,-4.3795387732318645,5.286771229933235
1778536235.430212,1945935.6829543,True,0.16462833341010202,-0.016825979623075582,0.9719728162555074,-13.760569290597768,10.919951922688997,7.657398171303117,-20.472220120605865,-3.9878127210157963,5.641945860642968
1778536235.4758787,1945935.7286139,True,0.17229969412482876,-0.005217838579023283,0.9691698275477794,-13.569950869103067,9.7988863938757,7.814974738760734,-20.676056383425628,-3.671203845626472,5.998774481682615
1778536235.522974,1945935.7757136,True,0.14464305046450082,0.030257899906856456,0.9680248144079772,-12.037487045743012,10.090822891341409,8.317896635490866,-20.782744302791844,-3.301894931162503,6.3905449175520115
1778536235.5692499,1945935.8219875,True,0.13797701864973674,0.04539828085163578,0.9760710340595312,-11.702137268516214,11.541517466471214,7.385212152521363,-20.845026838524294,-2.8732158914464327,6.732287485904244
1778536235.615389,1945935.8681305,True,0.1421280282060784,0.05048692735085139,0.9927077885666629,-11.078082361273253,9.834894497611014,8.732279171664516,-20.87143694231998,-2.5337644434292215,7.135221043845715
1778536235.6621287,1945935.9148659,True,0.13165348479805455,0.08906305373588093,0.9675782281896897,-11.286842169081831,10.752863472242703,7.805155906114594,-20.866726262706617,-2.144923373662642,7.49999812796999
1778536235.709187,1945935.9619064,True,0.09778670025289511,0.09647553850995735,0.9634757092230749,-10.279019476625754,11.173593839364278,7.7901580080342425,-20.809469462313622,-1.7022591533742604,7.86645105558824
1778536235.757034,1945936.0097622,True,0.11375412141603275,0.11411528677438501,0.9866797004886904,-11.027109169141033,11.791186006101277,7.8364696684149795,-20.779352029605157,-1.245891132218528,8.241471580884793
1778536235.8039682,1945936.056709,True,0.08307786270639897,0.13408618383279777,0.9777546630433361,-9.607784148972371,10.555614522008335,7.938273497334508,-20.650179369341252,-0.83156845882338,8.614148117904655
1778536235.8512843,1945936.1040106,True,0.13248864624457574,0.10238164356152571,0.9666169218771953,-9.706023605907594,11.370988800732471,7.7940524661139285,-20.567294266066785,-0.4430622597053373,8.982819269947825
1778536235.8979366,1945936.1506732,True,0.07614536414743947,0.10033913671520442,0.9755688080661442,-9.010175310546604,12.626314961628655,8.195270706150922,-20.450884814147003,0.05439831826165381,9.365231908903072
1778536235.9449587,1945936.1976928,True,0.10088513436801655,0.14489994545387685,0.9628431585602054,-10.129655779877314,10.92725530283299,7.087039495957645,-20.33838548606207,0.43852157343306475,9.698461672390108
1778536235.9927645,1945936.2455003,True,0.05780120048710061,0.17117621947031006,0.9655142724533293,-9.30169909430593,13.172244268829015,8.004729785804686,-20.166696657694867,0.9794189475669988,10.081147791618406
1778536236.0376732,1945936.2904136,True,0.09775214968337329,0.14119140140095074,0.9662611942897791,-9.126471960212784,12.47850239871702,7.207466114950956,-19.999631259056404,1.3947443154448518,10.404858878379132
1778536236.0837228,1945936.3364446,True,0.09207683940248307,0.13885691851903387,0.9752627740726836,-7.715712670294281,11.525403550530559,6.944098131351337,-19.786340368322442,1.7799666801437881,10.724502660106566
1778536236.1300898,1945936.3828247,True,0.06922649199153734,0.1964217926884813,0.9541119989324285,-7.082501028548986,12.138973878948834,8.367737459462237,-19.480466686626567,2.214815512121604,11.112599160863466
1778536236.178219,1945936.4309585,True,0.06697356793568579,0.1838390380396711,0.9626679670882087,-6.754070712380458,10.754680781572976,7.732424571709522,-19.19373355833185,2.59964398439125,11.484790137214961
1778536236.2250068,1945936.4777444,True,0.062432493520377635,0.21811678557685088,0.9457789818061846,-6.9208156050879115,13.32780171448604,8.271162451148383,-18.867993141190972,3.085125551999355,11.871763917666794
1778536236.2728724,1945936.5256124,True,0.03768409373752638,0.1953608635832255,0.9663672634185961,-7.697077976014547,11.983631378108944,7.465415559039235,-18.62329946249865,3.5418045299728678,12.229118428734466
1778536236.3126938,1945936.5654298,True,0.007773055164908629,0.19429715670720024,0.9639766472492856,-5.465133324002474,12.039676801283903,6.962628338270678,-18.236181191994266,3.9317115186395015,12.5063521866359
1778536236.3592308,1945936.6119721,True,0.04334152336078581,0.21213236383254153,0.9397898938607014,-6.26453435187371,12.624610537617054,7.189638110298359,-17.903057102171978,4.377388138293978,12.84097448149366
1778536236.4057674,1945936.6585084,True,0.0020495976450391005,0.21079724604242478,0.9592508168550165,-6.625195386044943,10.349939734981014,8.499585781557252,-17.599265101962107,4.75946394254884,13.236513754158388
1778536236.4530222,1945936.7057581,True,-0.021002730656394623,0.24115567966267765,0.9562244813255105,-6.1570186250397185,12.394031724353905,7.314834271339654,-17.24935255573106,5.262577970052342,13.58213747861026
1778536236.4933248,1945936.7460613,True,0.016346023552225575,0.2021131724527055,0.974322746579945,-4.436382945324025,12.751263699949455,7.940835114370655,-16.84523787078699,5.642142442234218,13.902178544532006
1778536236.5391712,1945936.7919115,True,-0.00573683418665988,0.2253834631035073,0.957476610172668,-3.429360641710885,10.299713729723887,7.4205586764555775,-16.397511878118664,5.998781800711984,14.242412644797078
1778536236.58713,1945936.839871,True,-0.03476943961290291,0.21807494805992994,0.9687453219090584,-5.004386321838435,10.881410190281379,8.051611398343498,-16.051198916588852,6.430343644600654,14.628563901594983
1778536236.6339083,1945936.8866501,True,-0.05896942719078655,0.2254541029970568,0.9468292393444404,-4.1773313307728515,9.484259666149576,8.277145869447562,-15.654306682308034,6.805871456789059,15.015761334710172
1778536236.680228,1945936.9329652,True,-0.03285394919431411,0.22038280755689957,0.9463120817598659,-1.8808346175349748,9.135528331992774,7.164458937489175,-15.164547568791678,7.123136818583401,15.3475839671612
1778536236.726896,1945936.9796372,True,-0.051755251676800645,0.2553214460982335,0.9511573728503442,-2.8987931108027896,10.122059112408293,7.115989043338131,-14.69375055279039,7.50380786502031,15.679701408390134
1778536236.7740107,1945937.0267456,True,-0.07237741518953947,0.2669912680257911,0.9412824218212039,-2.125691988364488,9.131299327031464,7.615420148369174,-14.182180498071354,7.859903357321296,16.03845166625704
1778536236.8225636,1945937.0753012,True,-0.08635410123712314,0.2282385775326336,0.936773313093349,-0.46723512069505624,10.967252680128915,7.620775903486173,-13.648024013847312,8.326934364865092,16.408483012649533
1778536236.8690672,1945937.1218076,True,-0.06990407414845809,0.2557499816086811,0.9555434637607997,-1.4396063917279038,9.17347017106511,7.496397058615015,-13.141759632241481,8.659334455626167,16.757113452720844
1778536236.9155555,1945937.1682903,True,-0.1077635293992459,0.2768502753752857,0.9380110424010275,0.3346788501482315,7.9345253369121,7.097842584945819,-12.536837709476945,8.973346252976109,17.08704034135171
1778536236.9622176,1945937.2149509,True,-0.11089896476748852,0.26785993065091745,0.9692388736220195,1.286981151020404,8.142035167854457,7.6996268595417705,-11.920184142428436,9.292061489084169,17.446309550373
1778536237.008872,1945937.2616068,True,-0.09879546537419823,0.21999040809736867,0.9507482595530413,0.846725423246818,8.94014484576089,7.220938523290365,-11.383850140790601,9.630605487121093,17.783208934902998
1778536237.0553858,1945937.3081274,True,-0.09930702271066555,0.23011744048411686,0.9462499544393885,0.4401648943512114,7.19308900857483,6.050011770691477,-10.864176193090046,9.88238079385557,18.064659113059747
1778536237.1013262,1945937.3540663,True,-0.12857868124426935,0.269405377642095,0.9552028976098419,0.5963771584982025,7.627422398674346,6.552798342979467,-10.307710004729435,10.175756907841475,18.36568746068379
1778536237.1471393,1945937.3998772,True,-0.11980373319623494,0.2244560328100857,0.9656567121759303,2.4604692878664793,6.333537200624195,6.213987358703763,-9.731309137271356,10.394391594453483,18.65035581374012
1778536237.194533,1945937.4472685,True,-0.1099767985291158,0.23434077540269924,0.9344166657097915,3.6591272598156563,8.804288194101064,5.7937526154146575,-9.087019647072783,10.725659742125025,18.92492928258247
1778536237.241132,1945937.4938691,True,-0.11714966123338852,0.24647306388138074,0.9596964743140761,2.3892470369478076,6.635632447991787,7.159114832792074,-8.510128236455213,10.949044942858727,19.258548329302858
1778536237.2883139,1945937.5410501,True,-0.12306785431185174,0.2482720209905753,0.9409963238615258,4.85161412823444,5.719017310099266,6.128197663736645,-7.822386252593873,11.13864063959939,19.54768282328621
1778536237.3344219,1945937.5871618,True,-0.11816279188099657,0.22766760797186492,0.9450845119157938,5.19539487296829,5.05594643740806,5.325135576088524,-7.162292034395186,11.282951314079684,19.793233876856124
1778536237.3813436,1945937.6340846,True,-0.13050451401689303,0.2206609696652005,0.9688210088135798,3.020288228836619,6.653396069834867,5.600801394390039,-6.625763370953803,11.512893274494859,20.05603916125931
1778536237.427066,1945937.6798032,True,-0.14118751985312994,0.19701460280890404,0.9379573905411235,4.731154044997441,5.310981010105802,6.242465075860324,-6.046595147863633,11.688191491395683,20.34143592533975
1778536237.4735181,1945937.7262555,True,-0.14189620265874114,0.184965456314152,0.967124313761711,5.279013497242678,6.491352981884848,5.6463030319664815,-5.471040905341884,11.913941474670153,20.60371968724565
1778536237.5200481,1945937.7727709,True,-0.17895315350129545,0.16524937862336847,0.9672513046215095,5.84344672170687,3.996215139698442,5.645612228091719,-4.904520740359777,12.06453913739515,20.86632759859523
1778536237.566432,1945937.8191673,True,-0.17966164039356106,0.15841429222583517,0.9473192495032816,6.607790310243756,5.689150363651983,5.9874622278458824,-4.319382853049127,12.29382614639534,21.144124290194142
1778536237.6128387,1945937.8655612,True,-0.17099286609618258,0.1458916407870613,0.9685654441666015,5.973869335799142,4.784140602430025,4.693713191699437,-3.7926408113360055,12.463515706251117,21.361883951475757
1778536237.6602013,1945937.9129373,True,-0.166583305383753,0.18368455217008517,0.9627879677151778,5.858149442533723,2.813263775589731,5.229602251551707,-3.231866003441131,12.537773533193393,21.609642110569094
1778536237.7068715,1945937.9596082,True,-0.20902916551555206,0.17133318960704733,0.9376226930500009,8.998869463301432,3.531355650398897,4.826126951457407,-2.5533920381491737,12.69592086071528,21.834881798711354
1778536237.7541814,1945938.0069186,True,-0.1541977226521846,0.14177886516681149,0.9522272573065129,6.731086241503492,2.031221287005572,5.606217234446149,-2.023016600007677,12.718171739750803,22.100114178872282
1778536237.7923796,1945938.045107,True,-0.16431850556854888,0.12429836362539387,0.96287630358013,9.43061274449975,2.7642689176244315,5.942493797285399,-1.4845796239332685,12.759384903073705,22.32704850888076
1778536237.840329,1945938.093061,True,-0.21792018063348575,0.1015743923994819,0.9618293185796274,8.970588643599932,0.4536183492838375,4.381490293650727,-0.9157070859249945,12.779466747239802,22.537158494715896
1778536237.887265,1945938.1400068,True,-0.21903430296389254,0.07678731131282235,0.9698541891650029,8.522637274182824,2.033003426784246,4.928151647572078,-0.4169703124297103,12.871167712086896,22.768514515547007
1778536237.9329715,1945938.1857084,True,-0.21024679293825366,0.09677827083855886,0.9651242259742558,10.51533877703202,1.9561531679789859,3.9379453416719477,0.17424237811449345,12.945957289972261,22.948484918947123
1778536237.9804451,1945938.2331703,True,-0.2045729459255328,0.09221237051955887,0.9668526032228502,8.641972402504413,-0.8374184449596214,5.229507273182976,0.6793330524056975,12.885975270743694,23.196687269823595
1778536238.027184,1945938.2799259,True,-0.17370890877696135,0.058972436798867364,0.9459710052009452,9.924387937637263,0.003835449803968216,5.135045714426845,1.1906611421196922,12.83614341305476,23.4367794133428
1778536238.0739038,1945938.3266276,True,-0.22235191738060633,0.07623894652990697,0.9605110428920793,11.654772613119139,-0.9823200529579061,3.6960894451486173,1.7886954555318002,12.79435256420882,23.609393073639065
1778536238.1210108,1945938.373753,True,-0.21586208724160416,0.04763881487427484,0.953018534360171,12.114552424243886,0.333566015311459,4.242937256830429,2.3682284828581115,12.808809729711639,23.809343189228894
1778536238.1681912,1945938.4209257,True,-0.18815889790846926,-0.0007736983841031345,0.969655293088213,10.35469540725773,-0.816961471458719,3.9587747059020018,2.7986560798236852,12.734498117415297,23.996089281015507
1778536238.2159443,1945938.468685,True,-0.18826087542386577,0.011653054922644361,0.9672553607608381,10.297769959474056,-1.2486925707772873,4.138496450615674,3.238211506899222,12.641628832185868,24.193740973990668
1778536238.262827,1945938.5155632,True,-0.1899061126180511,-0.016179456762895825,0.9603437433378998,12.612732408944908,-2.829999392394181,3.275476682316503,3.733946808583987,12.482469637643351,24.34728942507945
1778536238.3092892,1945938.5620179,True,-0.19421652553211338,-0.015975769642440227,0.9439457218805846,13.247534996264996,-3.528567045109049,3.81713458055885,4.243375582445222,12.304674524230505,24.524613266660758
1778536238.3440793,1945938.5968132,True,-0.2207699666714823,-0.016725682749150202,0.9610026681819217,11.597464203364794,-2.9614865942802258,2.942401724945996,4.534538774382634,12.2163183595375,24.62699501770597
1778536238.391583,1945938.6443199,True,-0.20675533983062183,-0.06203781489631904,0.9535200376645452,12.158584938767323,-4.789662335835718,4.435735202821089,4.937145687785992,11.993186361271194,24.83772215943016
1778536238.4378662,1945938.6906071,True,-0.1702787669276635,-0.017509672309198823,0.9551557448612975,13.848067224931247,-4.662986076120548,2.9073006128697383,5.44589293504513,11.743931879958613,24.972292964206957
1778536238.4844232,1945938.7371651,True,-0.19601296688558623,-0.06161280264757155,0.9710936024956679,11.678425161686853,-5.0507473353220345,3.003005043604101,5.798648993418982,11.506391337057662,25.112106872770358
1778536238.53012,1945938.7828611,True,-0.18029990940980262,-0.05317307465075327,0.9642173005694046,11.91878819124221,-5.091178158992901,2.5359928828763234,6.15436843974933,11.259785387367122,25.227991603807247
1778536238.5769265,1945938.8296566,True,-0.16019434209303152,-0.08662533502369492,0.9595601415746973,14.247488069850704,-5.288302586317745,4.002387563222105,6.582896807255435,10.980873825898868,25.41528533092885
1778536238.6232197,1945938.875946,True,-0.21297765017362522,-0.08847755514420778,0.9540180106975826,13.80775939285365,-5.7472928916988675,2.0341089629967284,6.974169231773258,10.751187330290403,25.509443014288856
1778536238.6690884,1945938.9218292,True,-0.1917206885031309,-0.09865181226509667,0.9577476457422152,13.26800481452027,-5.369709216875614,2.2521810569782224,7.315942210323151,10.519946279437107,25.612780287933862
1778536238.7162852,1945938.969022,True,-0.19716108288705755,-0.1249691565467822,0.9509363834788717,13.12313489520911,-7.29346458962248,2.799434678284978,7.629903700008512,10.204557327670186,25.7448934490756
1778536238.7640924,1945939.0168231,True,-0.18719865661077684,-0.11448068376358339,0.9821800833912018,14.048469975184357,-7.224154758213976,3.265514338245435,8.004772664951119,9.876449967458822,25.90098862634769
1778536238.81108,1945939.0638216,True,-0.18683112241487088,-0.1669751244792856,0.955693936802154,13.660554965028549,-8.321873198824775,2.393805575682238,8.27926431829278,9.513634158506667,26.013493897996774
1778536238.8591113,1945939.111836,True,-0.15747935692117876,-0.15157981395061204,0.954430408328961,15.19727320222153,-7.424193914921794,1.9035013414148694,8.65065854862382,9.159129350880148,26.104889372920535
1778536238.9060519,1945939.1587791,True,-0.15509946647793432,-0.1451196521499341,0.9553054602721379,14.110620434987286,-7.276185515042187,2.8679846766763237,8.956239177350296,8.82359163691403,26.239521464214018
1778536238.9526787,1945939.2053953,True,-0.13766791437626028,-0.15195424098121785,0.9652585714666997,15.942585625869153,-7.798674005103365,2.3179589060023904,9.328271948812057,8.45123598945569,26.3475758999177
1778536238.9998791,1945939.2526114,True,-0.1265211831343304,-0.18441726481960635,0.9570387415984315,13.386182202281915,-7.852852859829699,2.758977128069219,9.544806691199973,8.066772844486856,26.4778440403153
1778536239.0469446,1945939.2996794,True,-0.1171841465057297,-0.18408678299173956,0.9669069512925312,14.338696047227605,-9.53942208519472,1.45287462015867,9.801248548434163,7.60120522810668,26.546227942704153
1778536239.0938108,1945939.3465384,True,-0.13413675966095384,-0.20524763503226806,0.9838025112794669,15.03630433641418,-7.977102164863272,1.839288071750654,10.06213093300396,7.234906457271666,26.632415142662474
1778536239.1399465,1945939.3926791,True,-0.10613654118107951,-0.20543717906980272,0.9706386707112844,15.206328888256182,-9.406997339755176,1.5914888467734143,10.310854605683796,6.78696626877848,26.705847551904128
1778536239.1868374,1945939.439576,True,-0.12882589469137362,-0.1894340806236404,0.9754389771767858,15.352465893567485,-10.089192913738684,0.6668013945834133,10.592262425104103,6.335279055611122,26.737118470259336
1778536239.2341383,1945939.486879,True,-0.125406114699257,-0.20942518540392116,0.9727771271879195,14.10268126815318,-9.87088560170449,0.2543910359178956,10.793119402583999,5.89464955984389,26.7491519294312
1778536239.2810931,1945939.5338308,True,-0.085730418960615,-0.24271606452356637,0.9689031130117542,14.006464417874625,-9.908896276947047,0.20039156320804985,10.941514024447017,5.4189341742721,26.758560674052504
1778536239.328215,1945939.5809537,True,-0.11894906542758091,-0.23457129200530552,0.9984812238291743,15.23025815152566,-9.095117980816212,-0.1044133494751851,11.16340284558856,5.022842746830092,26.753640414236067
1778536239.3754435,1945939.6281794,True,-0.12768315357114582,-0.262297969118055,0.9814062386159723,14.948237577465468,-11.86055255642984,1.5532709237330913,11.335076189706433,4.516744810004799,26.826994720887903
1778536239.422591,1945939.6753282,True,-0.07453532833968535,-0.23857636987900632,0.9645862147342834,15.885455935844584,-10.128767781703583,0.43574152295687113,11.565319870862124,4.0441979836298545,26.847539410800863
1778536239.4701777,1945939.722919,True,-0.0631914005524373,-0.22770553433147378,0.9717066025820238,13.370729961694726,-10.064534922773124,0.27738551480552914,11.694377840074552,3.56637257333558,26.86074040938532
1778536239.5168128,1945939.7695515,True,-0.07103305043252121,-0.2432553999655921,1.0020825016858754,15.938954181460621,-12.216380021199955,0.4976511604197309,11.916663385875907,3.0155701405930513,26.883947127073686
1778536239.5635605,1945939.8162981,True,-0.07423035330713974,-0.2246897001973463,0.9791830482508498,13.995560921037267,-11.49321437621029,-0.5481464996602986,12.06173032628446,2.513251389633245,26.858323141938087
1778536239.6111915,1945939.8639101,True,-0.03434669146788194,-0.26809836145252686,0.9757072241152617,13.59554814046183,-11.615552508842958,0.1133764530273347,12.14775839424602,1.959889238220197,26.863721221622338
1778536239.6581843,1945939.9109121,True,-0.04089563588054625,-0.2717348967368135,1.008545588629101,15.360689359890266,-12.115310447706372,-0.1813236135445041,12.310997825206496,1.4074795058807892,26.855198649132042
1778536239.7052138,1945939.9579505,True,-0.04028125716315426,-0.25173701886471817,1.0019897386317425,13.921413429370967,-10.51607778318811,0.42984685475712137,12.424681908778517,0.9392197816827136,26.87541795745926
1778536239.7527092,1945940.0054498,True,-0.016672282324207144,-0.25277880709681433,0.9834381158495487,14.35630339467864,-12.561718763987715,-1.0152592216053484,12.55620364566308,0.354509481905002,26.827193855134055
1778536239.7994084,1945940.052144,True,-0.0012450052959961933,-0.24364111960170193,0.981211043435111,13.296411331801293,-12.60231194063925,0.03344126986730467,12.634630041167872,-0.22785534751257036,26.82875536847817
1778536239.8467345,1945940.0994628,True,-0.047295497158683746,-0.23850307493388065,0.9903869395592478,12.437362464593479,-11.015594644254262,-0.5850797781360123,12.688184119131392,-0.6809544745585533,26.80107009553871
1778536239.8939106,1945940.1466478,True,-0.023860060460135054,-0.2633777917967369,0.9839599928616635,13.925597119407318,-12.503130586201536,-2.035297966422962,12.778739461158493,-1.2186589473489193,26.705034560927533
1778536239.9418156,1945940.1945198,True,0.001246816609353394,-0.23443721961581085,1.0088173162079859,12.407134156300671,-12.67059529501075,-1.1433652453236813,12.843587016212403,-1.7901006691317989,26.650299380008313
1778536239.9883935,1945940.2411218,True,-0.007362911104852609,-0.25472041617833874,1.0158434493683373,11.616913955866426,-13.470049298782504,-0.4030687282123695,12.835735235993548,-2.361419123732055,26.631515571129423
1778536240.0351555,1945940.2878921,True,0.04561370757614787,-0.26161467410201833,1.0149625531700723,13.161939401370036,-11.751302571949928,-0.7455655465931474,12.89349942043248,-2.902647920208956,26.596645246832423
1778536240.0828192,1945940.3355417,True,0.02214136283921224,-0.2107394909036306,1.0079976750639899,11.173712647706846,-11.551663927433834,-0.6783607900884265,12.921287379346897,-3.4086528164350187,26.564321626476506
1778536240.1310515,1945940.3837894,True,0.018719134168329515,-0.24830373807834605,1.0238959039492783,10.755575540515203,-10.787805020762924,-2.7049636641224275,12.89882724856446,-3.8709144615283697,26.433813350851654
1778536240.1783729,1945940.4310929,True,0.027119715350013757,-0.23120988326014708,1.0156546370600297,12.344430097109727,-12.488702533566023,-1.3391443437050325,12.956702925466157,-4.402268199326216,26.37046713654084
1778536240.2259169,1945940.4786557,True,0.07382334635702703,-0.21611572769631957,1.0144883068686126,11.606895191898179,-10.45757149978128,-1.3399837074487484,12.998681828621638,-4.883086224832409,26.30673375930613
1778536240.2735145,1945940.526251,True,0.0848763633381136,-0.19762190703257998,0.9964991513488343,9.627538483551993,-13.068762518954928,-1.596911412724651,12.964215465176524,-5.490512443390677,26.23072828189481
1778536240.3122575,1945940.564992,True,0.05777517872014651,-0.18780998651631428,1.002073455611798,9.801593080626725,-10.338120519949404,-2.5550547008227094,12.865098150013107,-5.838069565806417,26.13174290714387
1778536240.3598583,1945940.6125868,True,0.045290858821933136,-0.16687277455218685,1.0007410280954177,11.742092801098075,-12.182638443219599,-2.5263794907329418,12.96633312759095,-6.34066262866188,26.011500380828714
1778536240.4068954,1945940.6596172,True,0.0722569202853473,-0.16672769919500152,1.0242022781114153,10.801436236915094,-9.923910047986233,-3.252805518938718,13.020373917216224,-6.750905118611757,25.858519636088563
1778536240.453715,1945940.7064529,True,0.09275676294920884,-0.1490319761499638,0.9973017688655167,8.112476500260321,-10.874719668968016,-3.11270287727916,12.963058484345497,-7.220138379620764,25.712734017783553
1778536240.5002694,1945940.7530093,True,0.07559778589723568,-0.18324548850245295,1.0086598975798735,9.993677124259705,-9.89820115854146,-2.460156053785095,12.954390231109587,-7.611692825130048,25.5981980087214
1778536240.5472844,1945940.8000117,True,0.1192074288921125,-0.1635483166113546,1.0298992130886477,9.809161715969825,-10.961067361343947,-3.4810731025637027,12.96784798280626,-8.094779887435966,25.43457921819052
1778536240.5943365,1945940.8470685,True,0.08608010048059335,-0.12152232856003112,1.0127449366650112,8.921029611106032,-10.585303105313463,-3.742577168094383,12.98352966417017,-8.517509443283027,25.258465512954352
1778536240.6419,1945940.8946357,True,0.10836110525753795,-0.10926351450354346,1.032387597178049,8.13152706879319,-9.058274675593713,-3.180414492966693,12.982743425813396,-8.888596094673876,25.107182100952784
1778536240.6900103,1945940.9427511,True,0.11342143176391659,-0.09591851799408126,1.0308492414893706,8.814428921841802,-10.079552967456646,-3.2550914253723446,13.03303119026602,-9.311147175202409,24.950562074555428
1778536240.736774,1945940.9895125,True,0.10723182860548723,-0.09845621276509137,1.0231775752385648,8.059919668842365,-9.585387441341199,-3.2603636710670054,13.032392635587806,-9.683297933916975,24.798102905330094
1778536240.7840106,1945941.0367508,True,0.16145921924709056,-0.11849635693018554,1.036332876837333,6.244579858584149,-10.310454638115202,-4.184986400064905,12.931910687740356,-10.142919041335217,24.60041126189631
1778536240.8311207,1945941.0838565,True,0.1597363107337268,-0.09406853418401932,1.0288830734158092,7.7264363436311125,-9.723581405743683,-3.929871283169546,12.926704480325142,-10.5647112500125,24.415291924151706
1778536240.8787103,1945941.1314442,True,0.1328977051567936,-0.04239757819934923,1.015121866815426,6.6459772485467115,-8.603143339597006,-4.795129415158272,12.930683571853848,-10.903676843106403,24.18710274429618
1778536240.9254534,1945941.178188,True,0.12709813966253256,-0.07366148613191777,1.011090894864078,6.2507301830522985,-7.2938945707089635,-3.9542683479640717,12.875720878441772,-11.162648458081227,24.002265214839642
1778536240.9726548,1945941.2253949,True,0.1463516876743084,-0.047506517088635694,1.0308473654740469,5.231491695877168,-6.928948246412931,-4.639828044963322,12.807980830165032,-11.421386847294754,23.78323331700124
1778536241.0197644,1945941.2724932,True,0.17480647996261534,-0.047351353965926074,1.0271557852532573,3.2513965469732713,-9.330601413811369,-3.8425247172662202,12.649852219811288,-11.816591300574474,23.602256935286444
1778536241.0666323,1945941.3193731,True,0.19134106489085362,0.013312286954531159,1.0409088978594176,4.096909639038404,-6.354847917734384,-5.1706217594783865,12.599489605417157,-12.08051707878105,23.359858703469413
1778536241.1094596,1945941.3621996,True,0.1552485954263995,-0.019854317984039083,1.0505328545761088,4.457483890483267,-8.057745439349935,-3.924719949727176,12.51315847193941,-12.34518794196656,23.191776684453004
1778536241.155935,1945941.4086717,True,0.19816796526992203,0.03329378654142098,1.0188700442332244,2.2537186915849126,-8.467653436995173,-4.075972697550782,12.402279534466683,-12.703938770739422,23.002357674297105
1778536241.2026742,1945941.4554145,True,0.20663053083412858,0.03763317530747335,1.0321888653520586,1.5385531515870454,-5.805285472408729,-4.51241114757756,12.265661261676591,-12.942046143408252,22.791434941797334
1778536241.2491572,1945941.5018926,True,0.16360051355639568,0.0554497725031082,1.0152470941813354,1.8079187495216447,-6.325906326898845,-3.9903561272610717,12.164425699873767,-13.154156151383726,22.60597077112504
1778536241.2968361,1945941.5495684,True,0.16477150059483495,0.047019487429647705,1.0436398185539857,1.1604528822492501,-4.6923271446999255,-4.134246821763325,12.02631826328272,-13.289568207552074,22.40886724631774
1778536241.343161,1945941.5958982,True,0.16190847826352886,0.04835975902002355,1.0504572614081993,0.35330892148824233,-5.994935463631204,-5.3897523201706,11.853936000466538,-13.471026158798614,22.159161099061645
1778536241.3893623,1945941.6420969,True,0.1775185703534923,0.07514318147338647,1.0439900939979303,0.7842852524060054,-6.558339283100185,-6.1905473319117705,11.733541862791022,-13.6910478168435,21.873165860929195
1778536241.4280233,1945941.6807463,True,0.19293131166529848,0.10867402974925638,1.0422410264571547,-1.0847538942686104,-4.552012424046829,-4.753176504200741,11.57486347810078,-13.798283106333983,21.68945844095883
1778536241.4765987,1945941.7293364,True,0.2177730417341257,0.09542194588008414,1.052330201739607,-0.21215076854307435,-4.7457381112017245,-4.904976303635431,11.434749794692673,-13.981211234010726,21.451125151193036
1778536241.524242,1945941.7769623,True,0.21114948474106107,0.12642219842673405,1.026864446573041,-0.6221620941883145,-5.34398047669679,-5.405970280436677,11.31454029290811,-14.181704336003842,21.1936609511417
1778536241.570798,1945941.8235375,True,0.2011601704307035,0.1449443719598721,1.028185070014507,-2.386459289193282,-4.386256136769326,-5.3258462330449285,11.136857968844414,-14.317557433807634,20.94560859742616
1778536241.6179268,1945941.8706669,True,0.18710671209666546,0.14429928194161554,1.0266499450956288,-3.183821365292763,-2.437058386967676,-6.269223080695755,10.924524286783692,-14.34837379709814,20.65014387615954
1778536241.665712,1945941.9184471,True,0.2006647813975477,0.1462109932358467,1.0484514631934132,-2.6601630498284345,-2.2266710643277747,-5.413709081358785,10.737456104985657,-14.380338918617616,20.391475772749498
1778536241.7123692,1945941.9651025,True,0.1741316896824029,0.1498361120058933,1.046412740611586,-3.642245080473511,-1.602867244321593,-5.243448220872281,10.516969675188566,-14.35310322031485,20.14684059884736
1778536241.7586427,1945942.0113773,True,0.19101601471914814,0.1547771123709085,1.0335791672195576,-4.148319054874461,-0.7355181133624857,-5.287141110878359,10.286044720991207,-14.306551492158464,19.902179202143916
1778536241.8052268,1945942.0579573,True,0.2195893693260816,0.17622051445032982,1.0307322451410101,-3.514801017146856,-0.25961399147779574,-5.316823497314451,10.10973517588291,-14.269461724458475,19.654521563202866
1778536241.852216,1945942.1049557,True,0.21555610602096725,0.18112422045394683,1.037387246880462,-3.9647217085340634,-2.2173107071094718,-5.3435660368380535,9.918945042675979,-14.31756107240083,19.403382509132754
1778536241.899247,1945942.1519727,True,0.21326303694686877,0.1668234167349329,1.0498512049766044,-4.9262454264896975,-1.5951893051956305,-6.022943304291688,9.670603226732602,-14.33159192429652,19.120201784294146
1778536241.9468465,1945942.1995836,True,0.1778657809098016,0.1812314838784912,1.0652363015801827,-5.509227130864493,-0.1426097902886777,-6.312656554195121,9.410658260597543,-14.238564198170739,18.81965052352484
1778536241.9929178,1945942.2456517,True,0.21417944721838392,0.19066372123767317,1.0404909351445166,-4.262163273110919,1.6024240211749587,-6.12056488058966,9.233525644171644,-14.1103712446568,18.537687728390964
1778536242.0389307,1945942.2916697,True,0.18949978773853193,0.20559874825755292,1.0394537639361197,-5.580335218066757,1.8103468451423332,-6.1060588756766245,9.01742425625165,-13.94931560642766,18.256699111088928
1778536242.086616,1945942.3393481,True,0.20008966922291907,0.2052657783410551,1.048735284645044,-6.414498687394806,1.595752941649925,-6.333725188827359,8.755016134238325,-13.807871768254937,17.954717229115982
1778536242.1331644,1945942.3859007,True,0.1752803068955563,0.21583887278895666,1.065086333390894,-7.210321887213359,0.53135952729831,-6.476219068443349,8.47712381029477,-13.690720131023902,17.653232392622435
1778536242.179407,1945942.4321455,True,0.20060827336224585,0.23348714454829236,1.0473949962579021,-8.663756238309194,1.1215190184584134,-6.1984247137785555,8.161932548302616,-13.577853970291022,17.366587480855934
1778536242.2260237,1945942.4787595,True,0.15773317676475918,0.21612554056440056,1.0515443368989799,-7.197847974380811,3.742080844189555,-6.507846570576465,7.899669552444189,-13.302525594152575,17.063230721626855
1778536242.2729175,1945942.5256554,True,0.20240568608155143,0.2325443728991984,1.0328480821561288,-9.252402695537901,2.8314899929524135,-8.042735680485864,7.565636638664905,-13.12281261436083,16.68605939308471
1778536242.3200066,1945942.5727448,True,0.18773980823818223,0.2384027736693165,1.033276461148878,-9.493774528546357,4.268515610916563,-6.229658250741975,7.2320061857886255,-12.86416959734495,16.392708523835196
1778536242.3669796,1945942.6197192,True,0.19115079641568816,0.23452899823880205,1.0689119562854899,-10.210265498916874,4.272656216645951,-7.482644448550581,6.8610912003212245,-12.608355571099688,16.0412157900143
1778536242.4146154,1945942.667354,True,0.18805389045374193,0.23461849064813003,1.0406117103490597,-10.181748809994856,5.5522446954971585,-7.113777168245745,6.49875359465485,-12.296956469006364,15.702352437611278
1778536242.4623652,1945942.7151026,True,0.16663905669025994,0.24056067434802791,1.0390361461949151,-11.107743647010196,3.907713934214185,-7.116973769764016,6.106539806028594,-12.045769439103854,15.3625269045805
1778536242.508588,1945942.7613268,True,0.13727497476940353,0.22585644612412298,1.0644357823723194,-8.986622630558937,5.720864044424486,-7.979801545566145,5.8149975167537304,-11.689505382962068,14.993666960647214
1778536242.5550094,1945942.8077509,True,0.15908868918852134,0.2314113327610109,1.0515781835194362,-11.040711697006516,4.4469820027464495,-8.254011004374078,5.441901083696603,-11.421490440973356,14.610481928852261
1778536242.6009457,1945942.853686,True,0.10968672160881904,0.22566239936314628,1.0312213454767734,-12.360574080120854,5.689473044484226,-7.27215597211845,5.022161361121036,-11.055583994549934,14.276434717461209
1778536242.647975,1945942.9007161,True,0.11872822646313945,0.26827600041390137,1.055052235922671,-9.920487703462467,6.850535779329283,-8.307476868500373,4.748104023802566,-10.643218886670436,13.885733250415047
1778536242.695046,1945942.947776,True,0.14095412343972952,0.22944763181255284,1.03938876203493,-10.65779042318595,6.326112509847475,-7.451235155973826,4.408400379723503,-10.289471639804308,13.53507886814951
1778536242.741995,1945942.9947293,True,0.09994915102732319,0.25662674632911436,1.031774354806667,-10.821274808812127,8.55154056243543,-6.663199182700527,4.100396735041186,-9.797598008331681,13.222219677870212
1778536242.7877474,1945943.0404801,True,0.08181801989861014,0.21594511049174364,1.049826794736073,-11.892936413693947,6.55433339319578,-7.403064042291857,3.7169436731075747,-9.395083324095395,12.883523575080508
1778536242.8351614,1945943.0879001,True,0.09440939358178563,0.23597681628223965,1.041770893737204,-11.403690484382862,7.309939538018899,-8.013979414126608,3.366908833331309,-8.968496134075433,12.50350067159162
1778536242.8820028,1945943.1347418,True,0.0737356880946919,0.25707215172213893,1.0650052501729947,-13.522143118309348,6.829679036027064,-8.125998097327415,2.9496248446679902,-8.552617141853831,12.122865107630497
1778536242.9288766,1945943.1816108,True,0.10651095882816118,0.22479547628386037,1.0624665139896092,-12.71088872216266,8.640737925843816,-7.060666877186676,2.544570885515321,-8.096712002123688,11.791938710442276
1778536242.9653218,1945943.2180464,True,0.0536895585831684,0.209087962716226,1.0288774632167017,-13.020886575077245,10.02325797921796,-8.73605378820525,2.2581840722188073,-7.6354265551555125,11.473635349870973
1778536243.0110514,1945943.2637845,True,0.06716612334396,0.24578783073537624,1.035290381181693,-11.986650217595468,8.97957752262856,-7.5448457178564965,1.942304640220307,-7.152460147307902,11.128548441383014
1778536243.058189,1945943.3109268,True,0.06672348866924642,0.2281645081487767,1.0519622871023886,-13.1142552944852,10.054474351017973,-6.99971889132536,1.5418624933860572,-6.615840118373195,10.798565594728196
1778536243.1052268,1945943.3579637,True,0.05255928831864348,0.2021433461509337,1.0593028490500151,-14.11300837052374,8.298541297209523,-7.723060738673393,1.0762840861946095,-6.1567972208951645,10.435296757640147
1778536243.1514647,1945943.4042016,True,0.0515025145305397,0.17918254144394785,1.0299280636112067,-14.047203656295068,10.164431617297923,-8.52276891139379,0.6153798991108348,-5.629487912737111,10.0412218216582
1778536243.1978312,1945943.4505693,True,0.03195112307828711,0.1945285721983469,1.0549240009815954,-15.203797921332555,9.898210343180107,-8.904402536836342,0.1210729043273944,-5.1012415572731955,9.628345156339055
1778536243.243918,1945943.4966548,True,0.034145071875856456,0.19567608562147346,1.0263142912467598,-13.275813934194776,11.588334675377038,-8.496712480724073,-0.26516307136601835,-4.513279862681292,9.23676991394132
1778536243.290075,1945943.542802,True,0.0315993153241535,0.16646970937991779,1.0340460376637168,-13.567689972365343,10.186274108236331,-8.91023990573534,-0.690622364045971,-3.9969098875310167,8.825587290552544
1778536243.3369389,1945943.5896732,True,0.029555403152277667,0.1454527208231709,1.0291395195361992,-13.857560227579686,10.331963470690908,-8.627140304869007,-1.1525138802105197,-3.474962017548362,8.421222872144595
1778536243.3829105,1945943.6356384,True,0.010368475641938693,0.15543778762597193,1.0523842726821728,-14.04812048125384,11.353096910832406,-8.973400134408442,-1.5942443073822892,-2.905220811517833,8.008758739772729
1778536243.429947,1945943.6826826,True,0.027134137107635035,0.14521767104589975,1.0247851744082874,-13.268843096467211,10.06617888220935,-7.88838243375427,-2.012844340596836,-2.413066580214692,7.637656097902819
1778536243.4775848,1945943.7303031,True,0.018976069676060185,0.11503991901010326,1.0548607737316442,-16.138389524939832,11.751701114257191,-7.268070774606744,-2.60127710006063,-1.836866186607976,7.291546933782318
1778536243.525,1945943.7777339,True,-0.02584112798012166,0.14694895644640962,1.0266828656613634,-14.33691156819591,11.58957629647233,-8.637384465434685,-3.052805126299333,-1.2328747624473277,6.8818688803345065
1778536243.5725274,1945943.8252681,True,-0.0006483956473572056,0.10386527292616644,1.0296166729861789,-16.16267550051334,12.840153952592177,-8.821150651425528,-3.6294558113150686,-0.6093597582810388,6.462562539892496
1778536243.6197507,1945943.8724891,True,-0.05694855637601475,0.08778046990563874,1.046730019598262,-15.828210687817565,12.140371055614946,-8.040291353129609,-4.1936090780324164,0.02670830934348232,6.082891941315581
1778536243.6668615,1945943.9196012,True,-0.06533413130023069,0.08888866063784046,1.055042742172423,-16.129638616602058,11.685600174554937,-8.094856196518455,-4.758305957830055,0.6363180623683048,5.70152626810537
1778536243.7095406,1945943.9622775,True,-0.027585937996082624,0.09828209737408382,1.024885814453749,-14.232634346461293,11.80376062881076,-6.998870744067492,-5.148874180700373,1.147953111818891,5.402840360267691
1778536243.7556474,1945944.0083831,True,-0.08117949931367337,0.031169780454587546,1.0403584598815363,-14.215461135343835,11.638314565017087,-8.009638025190261,-5.653982696464467,1.7400491722518452,5.033551193636444
1778536243.803092,1945944.0558314,True,-0.06130404918226374,0.05373527543825259,1.0435662618772648,-15.665964344103855,11.415100107185356,-7.153674118794519,-6.210507856748194,2.3031932432274753,4.694121517530575
1778536243.8491213,1945944.1018582,True,-0.0575816954639269,0.03368977232259775,1.0513344762579238,-14.45498956634798,12.336326579744798,-8.489822463726826,-6.701655131529821,2.8762421479310594,4.30336215644225
1778536243.8969653,1945944.1496978,True,-0.09703680624568006,0.03717822880405937,1.0301253320368666,-14.849441832788106,13.437475446558508,-8.596977510713856,-7.222648330631081,3.556260815211916,3.892086192028891
1778536243.9437993,1945944.1965335,True,-0.06296596693438736,0.01189930444101884,1.0500454789314442,-15.77970761079285,12.717431824856671,-6.973257056480289,-7.789506058793437,4.1374810618115,3.5654888161600593
1778536243.990548,1945944.2432866,True,-0.09210980831859819,-0.024847747893479776,1.0414364702749688,-14.777171515691164,11.900052213652588,-7.079078867636992,-8.338006033776978,4.701027297130315,3.2345199331073697
1778536244.038216,1945944.2909534,True,-0.10030249688247894,0.0034955786676247567,1.0304674207875408,-13.334312585630833,10.82238819784433,-8.42472578189025,-8.79026893821211,5.223746948303059,2.832940214413071
1778536244.0854964,1945944.338235,True,-0.11073360111770153,-0.03527085733128903,1.0117046741045774,-14.3912196385083,11.633000687836105,-7.534815647028623,-9.320991420569037,5.78314914429401,2.4766820761490376
1778536244.1322231,1945944.3849576,True,-0.13609475042253605,-0.0713838142424299,1.0414942095726698,-13.297225219125004,12.847366681600928,-6.804335956465276,-9.821186084213313,6.404294781528927,2.158765808964287
1778536244.1796896,1945944.4324117,True,-0.12066366292308488,-0.027427778382204393,1.0095164555897964,-13.801287880180581,12.844607081560307,-7.40000831857746,-10.297497605518679,7.009817965429418,1.8076050734575015
1778536244.226858,1945944.4795879,True,-0.1190741070760207,-0.08403111409623654,1.0244717871686957,-13.217073747554364,11.53468665742262,-7.885708313635704,-10.795766444135852,7.535055701713594,1.4355873211863495
1778536244.273311,1945944.5260447,True,-0.13490902996760532,-0.06356675192898098,1.0076806646248324,-14.77349262610583,10.32352588302632,-7.60023327006132,-11.324008243123188,8.00657075782779,1.0825048036338631
1778536244.3204498,1945944.5731897,True,-0.13974092023283857,-0.11303680823336318,1.0060534186353762,-14.784053367325736,12.02048161387448,-8.51717063677985,-11.90758672001002,8.558990160861761,0.6809627942998384
1778536244.3670712,1945944.6198118,True,-0.1429961923993654,-0.07590182724022948,1.0375051923976992,-13.306927727823641,11.568402670013281,-7.760528031115541,-12.360326850521066,9.072902822720438,0.3191506799663028
1778536244.4098973,1945944.6626409,True,-0.1535781594255491,-0.143215172757139,1.0242532612766153,-13.092234990708755,10.689909724478998,-7.941818500048957,-12.82009103008282,9.5090577224832,-0.02099025724322029
1778536244.4567382,1945944.7094783,True,-0.18365936233622998,-0.12165456197909719,1.0349121399993522,-12.689972645665309,12.054647906654543,-6.428717352034731,-13.278210473754262,10.07210741010159,-0.322094664500443
1778536244.5036438,1945944.756384,True,-0.13428499097152974,-0.1270444598830854,1.0072240738335265,-12.936901319380771,11.421555641651377,-7.309713161023172,-13.749855175362436,10.54638638082788,-0.6649618762733145
1778536244.5497723,1945944.8025062,True,-0.1666989574353999,-0.1410191723268091,1.0025666106632622,-13.58814818943415,11.242860394775784,-7.770804679327448,-14.24702978115013,11.030631989066025,-1.0233684845424937
1778536244.5969074,1945944.8496404,True,-0.14903570128667412,-0.1600516533678698,1.0225122433278504,-12.942157614941376,10.527581324320286,-7.152827392850181,-14.735999999068756,11.46019071704681,-1.3605112805713646
1778536244.6440282,1945944.8967549,True,-0.18234659528507408,-0.15147487605366716,1.0060582924494528,-11.19905061166964,11.26742287072004,-7.700924997110154,-15.126905211001285,11.954451689254574,-1.7233365119440809
1778536244.6915915,1945944.944327,True,-0.18860553583097658,-0.16563370846274303,0.9978178639489258,-11.8385476192762,8.328067457733331,-6.459156194768343,-15.561564175363326,12.314871391984726,-2.0306121368053165
1778536244.738749,1945944.9914832,True,-0.17570813629022286,-0.17045029508441234,1.0089747798994038,-12.132295579680688,10.239135429819353,-6.98595748318569,-15.999985464217772,12.73662323558472,-2.3600433453933136
1778536244.7858322,1945945.0385637,True,-0.1839997143841491,-0.20911575109106345,1.0104736322121202,-10.310931489222874,8.428021904175898,-6.2542268880529726,-16.385883557922572,13.072958102857875,-2.654495473261453
1778536244.8323402,1945945.0850818,True,-0.16693149829502188,-0.21098980444991436,1.0006100238117521,-9.189736687516083,9.571183385615521,-6.339861247277495,-16.712090234078605,13.433251516787891,-2.949413772494456
1778536244.8799763,1945945.1327138,True,-0.18226368413569993,-0.20903723604558164,1.0124089400314293,-9.561467277339247,9.134393635209033,-6.294961463947406,-17.053903098479616,13.790956036461514,-3.2492553780545976
1778536244.9264925,1945945.1792314,True,-0.17494105296900084,-0.19463779490059882,0.9888280438283517,-10.830121097833365,8.16329269705036,-7.107807925313114,-17.42592925653965,14.084232140709119,-3.579893542861883
1778536244.9726307,1945945.2253703,True,-0.20982515127901177,-0.2087502407022165,0.9880027264088272,-10.759287378452614,9.225385117900416,-6.918866345200994,-17.797448617907882,14.454447982631343,-3.8991224259636743
1778536245.0197234,1945945.272464,True,-0.19915129499808737,-0.2311220960133534,1.0201204015367364,-8.440483901738006,8.51826994691039,-5.859271887503771,-18.081776270969833,14.77409202251535,-4.175057217977961
1778536245.0667799,1945945.319517,True,-0.2138345184973132,-0.24878411610468604,1.0174181417462997,-7.53010874464398,7.043128781543551,-6.471153994823778,-18.33652132578474,15.034159725923374,-4.479544428133861
1778536245.113735,1945945.3664749,True,-0.19155855168381902,-0.23996858943834343,0.9994261357576396,-7.204080923295653,7.5925888765678735,-5.785731946769985,-18.566688371605444,15.294021586380978,-4.75123024925445
1778536245.160134,1945945.4128756,True,-0.22696097846399238,-0.22525230194154286,0.9927470622113043,-8.950313051059238,6.127889326479373,-7.166838816178653,-18.85179934764458,15.518165765632405,-5.083776587093109
1778536245.2066293,1945945.4593644,True,-0.1897647155041629,-0.2634026478235665,0.9899314418776557,-7.36260415277458,5.0765561767489835,-6.5363139124636085,-19.103100989405203,15.648985824874774,-5.3876419778694995
1778536245.2542896,1945945.5070252,True,-0.20418118571591942,-0.2166069654902686,1.016046605152427,-6.847710490542582,4.289506912157098,-5.376680556860855,-19.276985161931602,15.75874229562779,-5.6438988741768785
